onset	duration	experiment_name	sub	ses	clock_information	datafile_basename	display_refreshrate	experiment_version	group	randomseed	runtime_capabilities	runtime_version	runtimeversionexpected	session_date	session_start_date_time_utc	session_time	studio_version	block	fixation2trs_durationerror	fixation2trs_offsetdelay	fixation2trs_offsettime	fixation2trs_onsetdelay	fixation2trs_onsettime	fixation2trs_onsettoonsettime	goodwork_durationerror	goodwork_finishtime	goodwork_onsetdelay	goodwork_onsettime	goodwork_onsettoonsettime	procedure_block	runlist	runlist_cycle	runlist_sample	running_block	trial	condition	interblockinterval_duration	interblockinterval_durationerror	interblockinterval_finishtime	interblockinterval_offsetdelay	interblockinterval_offsettime	interblockinterval_onsetdelay	interblockinterval_onsettime	interblockinterval_onsettoonsettime	procedure_trial	run1blocklist	run1blocklist_cycle	run1blocklist_sample	run2blocklist	run2blocklist_cycle	run2blocklist_sample	run3blocklist	run3blocklist_cycle	run3blocklist_sample	run4blocklist	run4blocklist_cycle	run4blocklist_sample	run5blocklist	run5blocklist_cycle	run5blocklist_sample	running_trial	subtrial	a1highlargeedblocklist	a1highlargeedblocklist_cycle	a1highlargeedblocklist_sample	a2highlargeedblocklist	a2highlargeedblocklist_cycle	a2highlargeedblocklist_sample	a3highlargeedblocklist	a3highlargeedblocklist_cycle	a3highlargeedblocklist_sample	a4highlargeedblocklist	a4highlargeedblocklist_cycle	a4highlargeedblocklist_sample	a5highlargeedblocklist	a5highlargeedblocklist_cycle	a5highlargeedblocklist_sample	b1highsmalledblocklist	b1highsmalledblocklist_cycle	b1highsmalledblocklist_sample	b2highsmalledblocklist	b2highsmalledblocklist_cycle	b2highsmalledblocklist_sample	b3highsmalledblocklist	b3highsmalledblocklist_cycle	b3highsmalledblocklist_sample	b4highsmalledblocklist	b4highsmalledblocklist_cycle	b4highsmalledblocklist_sample	b5highsmalledblocklist	b5highsmalledblocklist_cycle	b5highsmalledblocklist_sample	c1lowlargeedblocklist	c1lowlargeedblocklist_cycle	c1lowlargeedblocklist_sample	c2lowlargeedblocklist	c2lowlargeedblocklist_cycle	c2lowlargeedblocklist_sample	c3lowlargeedblocklist	c3lowlargeedblocklist_cycle	c3lowlargeedblocklist_sample	c4lowlargeedblocklist	c4lowlargeedblocklist_cycle	c4lowlargeedblocklist_sample	c5lowlargeedblocklist	c5lowlargeedblocklist_cycle	c5lowlargeedblocklist_sample	d1lowsmalledblocklist	d1lowsmalledblocklist_cycle	d1lowsmalledblocklist_sample	d2highlargeedblocklist	d2highlargeedblocklist_cycle	d2highlargeedblocklist_sample	d3lowsmalledblocklist	d3lowsmalledblocklist_cycle	d3lowsmalledblocklist_sample	d4lowsmalledblocklist	d4lowsmalledblocklist_cycle	d4lowsmalledblocklist_sample	d5lowsmalledblocklist	d5lowsmalledblocklist_cycle	d5lowsmalledblocklist_sample	e1officelargeblocklist	e1officelargeblocklist_cycle	e1officelargeblocklist_sample	e2officelargeblocklist	e2officelargeblocklist_cycle	e2officelargeblocklist_sample	e3officelargeblocklist	e3officelargeblocklist_cycle	e3officelargeblocklist_sample	e4officelargeblocklist	e4officelargeblocklist_cycle	e4officelargeblocklist_sample	e5officelargeblocklist	e5officelargeblocklist_cycle	e5officelargeblocklist_sample	f1officesmallblocklist	f1officesmallblocklist_cycle	f1officesmallblocklist_sample	f2officesmallblocklist	f2officesmallblocklist_cycle	f2officesmallblocklist_sample	f3officesmallblocklist	f3officesmallblocklist_cycle	f3officesmallblocklist_sample	f4officesmallblocklist	f4officesmallblocklist_cycle	f4officesmallblocklist_sample	f5officesmallblocklist	f5officesmallblocklist_cycle	f5officesmallblocklist_sample	filename	isi_duration	isi_durationerror	isi_finishtime	isi_onsetdelay	isi_onsettime	isi_onsettoonsettime	procedure_subtrial	running_subtrial	stimslide_duration	stimslide_durationerror	stimslide_finishtime	stimslide_offsetdelay	stimslide_offsettime	stimslide_onsetdelay	stimslide_onsettime	stimslide_onsettoonsettime	stimslide_resp	stimslide_rt	stimslide_rttime	onset_unrounded
4	2.5	000_R01_VA_allProc	103	1	"<?xml version=""1.0""?>\n<Clock xmlns:dt=""urn:schemas-microsoft-com:datatypes""><Description dt:dt=""string"">E-Prime Primary Realtime Clock</Description><StartTime><Timestamp dt:dt=""int"">0</Timestamp><DateUtc dt:dt=""string"">2021-04-12T21:57:48Z</DateUtc></StartTime><FrequencyChanges><FrequencyChange><Frequency dt:dt=""r8"">3020410</Frequency><Timestamp dt:dt=""r8"">50532870266</Timestamp><Current dt:dt=""r8"">0</Current><DateUtc dt:dt=""string"">2021-04-12T21:57:48Z</DateUtc></FrequencyChange></FrequencyChanges></Clock>\n"	000_R01_VA_allProc-103-1	60.001	1.0.0.229	1	-1006163330	Professional	2.0.10.356	2.0.10.356	04-12-2021	4/12/2021 9:57:48 PM	17:57:48	2.0.10.252	1	0	0	74200	24	74200	4000	-999999	248511	0	234197	0	Run1Proc	1	1	1	RunList	1	HighLargeED	8000	0	96200	0	96200	0	96200	0	A1HighLargeEDBlockProc	1.0	1.0	1.0	n/a	n/a	n/a	n/a	n/a	n/a	n/a	n/a	n/a	n/a	n/a	n/a	Run1BlockList	1	1.0	1.0	1.0	n/a	n/a	n/a	n/a	n/a	n/a	n/a	n/a	n/a	n/a	n/a	n/a	n/a	n/a	n/a	n/a	n/a	n/a	n/a	n/a	n/a	n/a	n/a	n/a	n/a	n/a	n/a	n/a	n/a	n/a	n/a	n/a	n/a	n/a	n/a	n/a	n/a	n/a	n/a	n/a	n/a	n/a	n/a	n/a	n/a	n/a	n/a	n/a	n/a	n/a	n/a	n/a	n/a	n/a	n/a	n/a	n/a	n/a	n/a	n/a	n/a	n/a	n/a	n/a	n/a	n/a	n/a	n/a	n/a	n/a	n/a	n/a	n/a	n/a	n/a	n/a	n/a	n/a	n/a	n/a	n/a	n/a	n/a	n/a	n/a	n/a	n/a	A1_01.jpg	500	0	80700	0	80700	0	TrialProc1	A1HighLargeEDBlockList	2500	0	78200	0	78200	0	78200	2500	n/a	0	0	4.0
7	2.5	000_R01_VA_allProc	103	1	"<?xml version=""1.0""?>\n<Clock xmlns:dt=""urn:schemas-microsoft-com:datatypes""><Description dt:dt=""string"">E-Prime Primary Realtime Clock</Description><StartTime><Timestamp dt:dt=""int"">0</Timestamp><DateUtc dt:dt=""string"">2021-04-12T21:57:48Z</DateUtc></StartTime><FrequencyChanges><FrequencyChange><Frequency dt:dt=""r8"">3020410</Frequency><Timestamp dt:dt=""r8"">50532870266</Timestamp><Current dt:dt=""r8"">0</Current><DateUtc dt:dt=""string"">2021-04-12T21:57:48Z</DateUtc></FrequencyChange></FrequencyChanges></Clock>\n"	000_R01_VA_allProc-103-1	60.001	1.0.0.229	1	-1006163330	Professional	2.0.10.356	2.0.10.356	04-12-2021	4/12/2021 9:57:48 PM	17:57:48	2.0.10.252	1	0	0	74200	24	74200	4000	-999999	248511	0	234197	0	Run1Proc	1	1	1	RunList	1	HighLargeED	8000	0	96200	0	96200	0	96200	0	A1HighLargeEDBlockProc	1.0	1.0	1.0	n/a	n/a	n/a	n/a	n/a	n/a	n/a	n/a	n/a	n/a	n/a	n/a	Run1BlockList	2	2.0	1.0	2.0	n/a	n/a	n/a	n/a	n/a	n/a	n/a	n/a	n/a	n/a	n/a	n/a	n/a	n/a	n/a	n/a	n/a	n/a	n/a	n/a	n/a	n/a	n/a	n/a	n/a	n/a	n/a	n/a	n/a	n/a	n/a	n/a	n/a	n/a	n/a	n/a	n/a	n/a	n/a	n/a	n/a	n/a	n/a	n/a	n/a	n/a	n/a	n/a	n/a	n/a	n/a	n/a	n/a	n/a	n/a	n/a	n/a	n/a	n/a	n/a	n/a	n/a	n/a	n/a	n/a	n/a	n/a	n/a	n/a	n/a	n/a	n/a	n/a	n/a	n/a	n/a	n/a	n/a	n/a	n/a	n/a	n/a	n/a	n/a	n/a	n/a	n/a	A1_02.jpg	500	0	83700	0	83700	0	TrialProc1	A1HighLargeEDBlockList	2500	0	81200	0	81200	0	81200	2500	d	898	82098	7.0
10	2.5	000_R01_VA_allProc	103	1	"<?xml version=""1.0""?>\n<Clock xmlns:dt=""urn:schemas-microsoft-com:datatypes""><Description dt:dt=""string"">E-Prime Primary Realtime Clock</Description><StartTime><Timestamp dt:dt=""int"">0</Timestamp><DateUtc dt:dt=""string"">2021-04-12T21:57:48Z</DateUtc></StartTime><FrequencyChanges><FrequencyChange><Frequency dt:dt=""r8"">3020410</Frequency><Timestamp dt:dt=""r8"">50532870266</Timestamp><Current dt:dt=""r8"">0</Current><DateUtc dt:dt=""string"">2021-04-12T21:57:48Z</DateUtc></FrequencyChange></FrequencyChanges></Clock>\n"	000_R01_VA_allProc-103-1	60.001	1.0.0.229	1	-1006163330	Professional	2.0.10.356	2.0.10.356	04-12-2021	4/12/2021 9:57:48 PM	17:57:48	2.0.10.252	1	0	0	74200	24	74200	4000	-999999	248511	0	234197	0	Run1Proc	1	1	1	RunList	1	HighLargeED	8000	0	96200	0	96200	0	96200	0	A1HighLargeEDBlockProc	1.0	1.0	1.0	n/a	n/a	n/a	n/a	n/a	n/a	n/a	n/a	n/a	n/a	n/a	n/a	Run1BlockList	3	3.0	1.0	3.0	n/a	n/a	n/a	n/a	n/a	n/a	n/a	n/a	n/a	n/a	n/a	n/a	n/a	n/a	n/a	n/a	n/a	n/a	n/a	n/a	n/a	n/a	n/a	n/a	n/a	n/a	n/a	n/a	n/a	n/a	n/a	n/a	n/a	n/a	n/a	n/a	n/a	n/a	n/a	n/a	n/a	n/a	n/a	n/a	n/a	n/a	n/a	n/a	n/a	n/a	n/a	n/a	n/a	n/a	n/a	n/a	n/a	n/a	n/a	n/a	n/a	n/a	n/a	n/a	n/a	n/a	n/a	n/a	n/a	n/a	n/a	n/a	n/a	n/a	n/a	n/a	n/a	n/a	n/a	n/a	n/a	n/a	n/a	n/a	n/a	n/a	n/a	A1_03.jpg	500	0	86700	0	86700	0	TrialProc1	A1HighLargeEDBlockList	2500	0	84200	0	84200	0	84200	2500	c	1186	85386	10.0
13	2.5	000_R01_VA_allProc	103	1	"<?xml version=""1.0""?>\n<Clock xmlns:dt=""urn:schemas-microsoft-com:datatypes""><Description dt:dt=""string"">E-Prime Primary Realtime Clock</Description><StartTime><Timestamp dt:dt=""int"">0</Timestamp><DateUtc dt:dt=""string"">2021-04-12T21:57:48Z</DateUtc></StartTime><FrequencyChanges><FrequencyChange><Frequency dt:dt=""r8"">3020410</Frequency><Timestamp dt:dt=""r8"">50532870266</Timestamp><Current dt:dt=""r8"">0</Current><DateUtc dt:dt=""string"">2021-04-12T21:57:48Z</DateUtc></FrequencyChange></FrequencyChanges></Clock>\n"	000_R01_VA_allProc-103-1	60.001	1.0.0.229	1	-1006163330	Professional	2.0.10.356	2.0.10.356	04-12-2021	4/12/2021 9:57:48 PM	17:57:48	2.0.10.252	1	0	0	74200	24	74200	4000	-999999	248511	0	234197	0	Run1Proc	1	1	1	RunList	1	HighLargeED	8000	0	96200	0	96200	0	96200	0	A1HighLargeEDBlockProc	1.0	1.0	1.0	n/a	n/a	n/a	n/a	n/a	n/a	n/a	n/a	n/a	n/a	n/a	n/a	Run1BlockList	4	4.0	1.0	4.0	n/a	n/a	n/a	n/a	n/a	n/a	n/a	n/a	n/a	n/a	n/a	n/a	n/a	n/a	n/a	n/a	n/a	n/a	n/a	n/a	n/a	n/a	n/a	n/a	n/a	n/a	n/a	n/a	n/a	n/a	n/a	n/a	n/a	n/a	n/a	n/a	n/a	n/a	n/a	n/a	n/a	n/a	n/a	n/a	n/a	n/a	n/a	n/a	n/a	n/a	n/a	n/a	n/a	n/a	n/a	n/a	n/a	n/a	n/a	n/a	n/a	n/a	n/a	n/a	n/a	n/a	n/a	n/a	n/a	n/a	n/a	n/a	n/a	n/a	n/a	n/a	n/a	n/a	n/a	n/a	n/a	n/a	n/a	n/a	n/a	n/a	n/a	A1_04.jpg	500	0	89700	0	89700	0	TrialProc1	A1HighLargeEDBlockList	2500	0	87200	0	87200	0	87200	2500	d	1010	88210	13.0
16	2.5	000_R01_VA_allProc	103	1	"<?xml version=""1.0""?>\n<Clock xmlns:dt=""urn:schemas-microsoft-com:datatypes""><Description dt:dt=""string"">E-Prime Primary Realtime Clock</Description><StartTime><Timestamp dt:dt=""int"">0</Timestamp><DateUtc dt:dt=""string"">2021-04-12T21:57:48Z</DateUtc></StartTime><FrequencyChanges><FrequencyChange><Frequency dt:dt=""r8"">3020410</Frequency><Timestamp dt:dt=""r8"">50532870266</Timestamp><Current dt:dt=""r8"">0</Current><DateUtc dt:dt=""string"">2021-04-12T21:57:48Z</DateUtc></FrequencyChange></FrequencyChanges></Clock>\n"	000_R01_VA_allProc-103-1	60.001	1.0.0.229	1	-1006163330	Professional	2.0.10.356	2.0.10.356	04-12-2021	4/12/2021 9:57:48 PM	17:57:48	2.0.10.252	1	0	0	74200	24	74200	4000	-999999	248511	0	234197	0	Run1Proc	1	1	1	RunList	1	HighLargeED	8000	0	96200	0	96200	0	96200	0	A1HighLargeEDBlockProc	1.0	1.0	1.0	n/a	n/a	n/a	n/a	n/a	n/a	n/a	n/a	n/a	n/a	n/a	n/a	Run1BlockList	5	5.0	1.0	5.0	n/a	n/a	n/a	n/a	n/a	n/a	n/a	n/a	n/a	n/a	n/a	n/a	n/a	n/a	n/a	n/a	n/a	n/a	n/a	n/a	n/a	n/a	n/a	n/a	n/a	n/a	n/a	n/a	n/a	n/a	n/a	n/a	n/a	n/a	n/a	n/a	n/a	n/a	n/a	n/a	n/a	n/a	n/a	n/a	n/a	n/a	n/a	n/a	n/a	n/a	n/a	n/a	n/a	n/a	n/a	n/a	n/a	n/a	n/a	n/a	n/a	n/a	n/a	n/a	n/a	n/a	n/a	n/a	n/a	n/a	n/a	n/a	n/a	n/a	n/a	n/a	n/a	n/a	n/a	n/a	n/a	n/a	n/a	n/a	n/a	n/a	n/a	A1_05.jpg	500	0	92700	0	92700	0	TrialProc1	A1HighLargeEDBlockList	2500	0	90200	0	90200	0	90200	2500	c	1834	92034	16.0
19	2.5	000_R01_VA_allProc	103	1	"<?xml version=""1.0""?>\n<Clock xmlns:dt=""urn:schemas-microsoft-com:datatypes""><Description dt:dt=""string"">E-Prime Primary Realtime Clock</Description><StartTime><Timestamp dt:dt=""int"">0</Timestamp><DateUtc dt:dt=""string"">2021-04-12T21:57:48Z</DateUtc></StartTime><FrequencyChanges><FrequencyChange><Frequency dt:dt=""r8"">3020410</Frequency><Timestamp dt:dt=""r8"">50532870266</Timestamp><Current dt:dt=""r8"">0</Current><DateUtc dt:dt=""string"">2021-04-12T21:57:48Z</DateUtc></FrequencyChange></FrequencyChanges></Clock>\n"	000_R01_VA_allProc-103-1	60.001	1.0.0.229	1	-1006163330	Professional	2.0.10.356	2.0.10.356	04-12-2021	4/12/2021 9:57:48 PM	17:57:48	2.0.10.252	1	0	0	74200	24	74200	4000	-999999	248511	0	234197	0	Run1Proc	1	1	1	RunList	1	HighLargeED	8000	0	96200	0	96200	0	96200	0	A1HighLargeEDBlockProc	1.0	1.0	1.0	n/a	n/a	n/a	n/a	n/a	n/a	n/a	n/a	n/a	n/a	n/a	n/a	Run1BlockList	6	6.0	1.0	6.0	n/a	n/a	n/a	n/a	n/a	n/a	n/a	n/a	n/a	n/a	n/a	n/a	n/a	n/a	n/a	n/a	n/a	n/a	n/a	n/a	n/a	n/a	n/a	n/a	n/a	n/a	n/a	n/a	n/a	n/a	n/a	n/a	n/a	n/a	n/a	n/a	n/a	n/a	n/a	n/a	n/a	n/a	n/a	n/a	n/a	n/a	n/a	n/a	n/a	n/a	n/a	n/a	n/a	n/a	n/a	n/a	n/a	n/a	n/a	n/a	n/a	n/a	n/a	n/a	n/a	n/a	n/a	n/a	n/a	n/a	n/a	n/a	n/a	n/a	n/a	n/a	n/a	n/a	n/a	n/a	n/a	n/a	n/a	n/a	n/a	n/a	n/a	A1_06.jpg	500	0	95700	0	95700	0	TrialProc1	A1HighLargeEDBlockList	2500	0	93200	0	93200	0	93200	2500	d	1370	94570	19.0
30	2.5	000_R01_VA_allProc	103	1	"<?xml version=""1.0""?>\n<Clock xmlns:dt=""urn:schemas-microsoft-com:datatypes""><Description dt:dt=""string"">E-Prime Primary Realtime Clock</Description><StartTime><Timestamp dt:dt=""int"">0</Timestamp><DateUtc dt:dt=""string"">2021-04-12T21:57:48Z</DateUtc></StartTime><FrequencyChanges><FrequencyChange><Frequency dt:dt=""r8"">3020410</Frequency><Timestamp dt:dt=""r8"">50532870266</Timestamp><Current dt:dt=""r8"">0</Current><DateUtc dt:dt=""string"">2021-04-12T21:57:48Z</DateUtc></FrequencyChange></FrequencyChanges></Clock>\n"	000_R01_VA_allProc-103-1	60.001	1.0.0.229	1	-1006163330	Professional	2.0.10.356	2.0.10.356	04-12-2021	4/12/2021 9:57:48 PM	17:57:48	2.0.10.252	1	0	0	74200	24	74200	4000	-999999	248511	0	234197	0	Run1Proc	1	1	1	RunList	2	OfficeSmall	8000	0	122199	0	122199	0	122199	0	F1OfficeSmallBlockProc	2.0	1.0	2.0	n/a	n/a	n/a	n/a	n/a	n/a	n/a	n/a	n/a	n/a	n/a	n/a	Run1BlockList	1	n/a	n/a	n/a	n/a	n/a	n/a	n/a	n/a	n/a	n/a	n/a	n/a	n/a	n/a	n/a	n/a	n/a	n/a	n/a	n/a	n/a	n/a	n/a	n/a	n/a	n/a	n/a	n/a	n/a	n/a	n/a	n/a	n/a	n/a	n/a	n/a	n/a	n/a	n/a	n/a	n/a	n/a	n/a	n/a	n/a	n/a	n/a	n/a	n/a	n/a	n/a	n/a	n/a	n/a	n/a	n/a	n/a	n/a	n/a	n/a	n/a	n/a	n/a	n/a	n/a	n/a	n/a	n/a	n/a	n/a	n/a	n/a	n/a	n/a	n/a	1.0	1.0	1.0	n/a	n/a	n/a	n/a	n/a	n/a	n/a	n/a	n/a	n/a	n/a	n/a	F1_01.jpg	500	0	106700	0	106700	0	TrialProc1	F1OfficeSmallBlockList	2500	0	104200	0	104200	0	104200	2500	d	2282	106482	30.0
33	2.5	000_R01_VA_allProc	103	1	"<?xml version=""1.0""?>\n<Clock xmlns:dt=""urn:schemas-microsoft-com:datatypes""><Description dt:dt=""string"">E-Prime Primary Realtime Clock</Description><StartTime><Timestamp dt:dt=""int"">0</Timestamp><DateUtc dt:dt=""string"">2021-04-12T21:57:48Z</DateUtc></StartTime><FrequencyChanges><FrequencyChange><Frequency dt:dt=""r8"">3020410</Frequency><Timestamp dt:dt=""r8"">50532870266</Timestamp><Current dt:dt=""r8"">0</Current><DateUtc dt:dt=""string"">2021-04-12T21:57:48Z</DateUtc></FrequencyChange></FrequencyChanges></Clock>\n"	000_R01_VA_allProc-103-1	60.001	1.0.0.229	1	-1006163330	Professional	2.0.10.356	2.0.10.356	04-12-2021	4/12/2021 9:57:48 PM	17:57:48	2.0.10.252	1	0	0	74200	24	74200	4000	-999999	248511	0	234197	0	Run1Proc	1	1	1	RunList	2	OfficeSmall	8000	0	122199	0	122199	0	122199	0	F1OfficeSmallBlockProc	2.0	1.0	2.0	n/a	n/a	n/a	n/a	n/a	n/a	n/a	n/a	n/a	n/a	n/a	n/a	Run1BlockList	2	n/a	n/a	n/a	n/a	n/a	n/a	n/a	n/a	n/a	n/a	n/a	n/a	n/a	n/a	n/a	n/a	n/a	n/a	n/a	n/a	n/a	n/a	n/a	n/a	n/a	n/a	n/a	n/a	n/a	n/a	n/a	n/a	n/a	n/a	n/a	n/a	n/a	n/a	n/a	n/a	n/a	n/a	n/a	n/a	n/a	n/a	n/a	n/a	n/a	n/a	n/a	n/a	n/a	n/a	n/a	n/a	n/a	n/a	n/a	n/a	n/a	n/a	n/a	n/a	n/a	n/a	n/a	n/a	n/a	n/a	n/a	n/a	n/a	n/a	n/a	2.0	1.0	2.0	n/a	n/a	n/a	n/a	n/a	n/a	n/a	n/a	n/a	n/a	n/a	n/a	F1_02.jpg	500	0	109700	0	109700	0	TrialProc1	F1OfficeSmallBlockList	2500	0	107200	0	107200	0	107200	2500	c	1690	108890	33.0
36	2.5	000_R01_VA_allProc	103	1	"<?xml version=""1.0""?>\n<Clock xmlns:dt=""urn:schemas-microsoft-com:datatypes""><Description dt:dt=""string"">E-Prime Primary Realtime Clock</Description><StartTime><Timestamp dt:dt=""int"">0</Timestamp><DateUtc dt:dt=""string"">2021-04-12T21:57:48Z</DateUtc></StartTime><FrequencyChanges><FrequencyChange><Frequency dt:dt=""r8"">3020410</Frequency><Timestamp dt:dt=""r8"">50532870266</Timestamp><Current dt:dt=""r8"">0</Current><DateUtc dt:dt=""string"">2021-04-12T21:57:48Z</DateUtc></FrequencyChange></FrequencyChanges></Clock>\n"	000_R01_VA_allProc-103-1	60.001	1.0.0.229	1	-1006163330	Professional	2.0.10.356	2.0.10.356	04-12-2021	4/12/2021 9:57:48 PM	17:57:48	2.0.10.252	1	0	0	74200	24	74200	4000	-999999	248511	0	234197	0	Run1Proc	1	1	1	RunList	2	OfficeSmall	8000	0	122199	0	122199	0	122199	0	F1OfficeSmallBlockProc	2.0	1.0	2.0	n/a	n/a	n/a	n/a	n/a	n/a	n/a	n/a	n/a	n/a	n/a	n/a	Run1BlockList	3	n/a	n/a	n/a	n/a	n/a	n/a	n/a	n/a	n/a	n/a	n/a	n/a	n/a	n/a	n/a	n/a	n/a	n/a	n/a	n/a	n/a	n/a	n/a	n/a	n/a	n/a	n/a	n/a	n/a	n/a	n/a	n/a	n/a	n/a	n/a	n/a	n/a	n/a	n/a	n/a	n/a	n/a	n/a	n/a	n/a	n/a	n/a	n/a	n/a	n/a	n/a	n/a	n/a	n/a	n/a	n/a	n/a	n/a	n/a	n/a	n/a	n/a	n/a	n/a	n/a	n/a	n/a	n/a	n/a	n/a	n/a	n/a	n/a	n/a	n/a	3.0	1.0	3.0	n/a	n/a	n/a	n/a	n/a	n/a	n/a	n/a	n/a	n/a	n/a	n/a	F1_03.jpg	500	1	112700	-1	112699	0	TrialProc1	F1OfficeSmallBlockList	2500	0	110200	0	110200	0	110200	2499	c	1778	111978	36.0
39	2.5	000_R01_VA_allProc	103	1	"<?xml version=""1.0""?>\n<Clock xmlns:dt=""urn:schemas-microsoft-com:datatypes""><Description dt:dt=""string"">E-Prime Primary Realtime Clock</Description><StartTime><Timestamp dt:dt=""int"">0</Timestamp><DateUtc dt:dt=""string"">2021-04-12T21:57:48Z</DateUtc></StartTime><FrequencyChanges><FrequencyChange><Frequency dt:dt=""r8"">3020410</Frequency><Timestamp dt:dt=""r8"">50532870266</Timestamp><Current dt:dt=""r8"">0</Current><DateUtc dt:dt=""string"">2021-04-12T21:57:48Z</DateUtc></FrequencyChange></FrequencyChanges></Clock>\n"	000_R01_VA_allProc-103-1	60.001	1.0.0.229	1	-1006163330	Professional	2.0.10.356	2.0.10.356	04-12-2021	4/12/2021 9:57:48 PM	17:57:48	2.0.10.252	1	0	0	74200	24	74200	4000	-999999	248511	0	234197	0	Run1Proc	1	1	1	RunList	2	OfficeSmall	8000	0	122199	0	122199	0	122199	0	F1OfficeSmallBlockProc	2.0	1.0	2.0	n/a	n/a	n/a	n/a	n/a	n/a	n/a	n/a	n/a	n/a	n/a	n/a	Run1BlockList	4	n/a	n/a	n/a	n/a	n/a	n/a	n/a	n/a	n/a	n/a	n/a	n/a	n/a	n/a	n/a	n/a	n/a	n/a	n/a	n/a	n/a	n/a	n/a	n/a	n/a	n/a	n/a	n/a	n/a	n/a	n/a	n/a	n/a	n/a	n/a	n/a	n/a	n/a	n/a	n/a	n/a	n/a	n/a	n/a	n/a	n/a	n/a	n/a	n/a	n/a	n/a	n/a	n/a	n/a	n/a	n/a	n/a	n/a	n/a	n/a	n/a	n/a	n/a	n/a	n/a	n/a	n/a	n/a	n/a	n/a	n/a	n/a	n/a	n/a	n/a	4.0	1.0	4.0	n/a	n/a	n/a	n/a	n/a	n/a	n/a	n/a	n/a	n/a	n/a	n/a	F1_04.jpg	500	0	115699	0	115699	0	TrialProc1	F1OfficeSmallBlockList	2500	1	113200	1	113200	0	113199	2500	c	1803	115002	38.999
42	2.5	000_R01_VA_allProc	103	1	"<?xml version=""1.0""?>\n<Clock xmlns:dt=""urn:schemas-microsoft-com:datatypes""><Description dt:dt=""string"">E-Prime Primary Realtime Clock</Description><StartTime><Timestamp dt:dt=""int"">0</Timestamp><DateUtc dt:dt=""string"">2021-04-12T21:57:48Z</DateUtc></StartTime><FrequencyChanges><FrequencyChange><Frequency dt:dt=""r8"">3020410</Frequency><Timestamp dt:dt=""r8"">50532870266</Timestamp><Current dt:dt=""r8"">0</Current><DateUtc dt:dt=""string"">2021-04-12T21:57:48Z</DateUtc></FrequencyChange></FrequencyChanges></Clock>\n"	000_R01_VA_allProc-103-1	60.001	1.0.0.229	1	-1006163330	Professional	2.0.10.356	2.0.10.356	04-12-2021	4/12/2021 9:57:48 PM	17:57:48	2.0.10.252	1	0	0	74200	24	74200	4000	-999999	248511	0	234197	0	Run1Proc	1	1	1	RunList	2	OfficeSmall	8000	0	122199	0	122199	0	122199	0	F1OfficeSmallBlockProc	2.0	1.0	2.0	n/a	n/a	n/a	n/a	n/a	n/a	n/a	n/a	n/a	n/a	n/a	n/a	Run1BlockList	5	n/a	n/a	n/a	n/a	n/a	n/a	n/a	n/a	n/a	n/a	n/a	n/a	n/a	n/a	n/a	n/a	n/a	n/a	n/a	n/a	n/a	n/a	n/a	n/a	n/a	n/a	n/a	n/a	n/a	n/a	n/a	n/a	n/a	n/a	n/a	n/a	n/a	n/a	n/a	n/a	n/a	n/a	n/a	n/a	n/a	n/a	n/a	n/a	n/a	n/a	n/a	n/a	n/a	n/a	n/a	n/a	n/a	n/a	n/a	n/a	n/a	n/a	n/a	n/a	n/a	n/a	n/a	n/a	n/a	n/a	n/a	n/a	n/a	n/a	n/a	5.0	1.0	5.0	n/a	n/a	n/a	n/a	n/a	n/a	n/a	n/a	n/a	n/a	n/a	n/a	F1_05.jpg	500	0	118699	0	118699	0	TrialProc1	F1OfficeSmallBlockList	2500	0	116199	0	116199	0	116199	2500	c	2467	118666	41.999
45	2.5	000_R01_VA_allProc	103	1	"<?xml version=""1.0""?>\n<Clock xmlns:dt=""urn:schemas-microsoft-com:datatypes""><Description dt:dt=""string"">E-Prime Primary Realtime Clock</Description><StartTime><Timestamp dt:dt=""int"">0</Timestamp><DateUtc dt:dt=""string"">2021-04-12T21:57:48Z</DateUtc></StartTime><FrequencyChanges><FrequencyChange><Frequency dt:dt=""r8"">3020410</Frequency><Timestamp dt:dt=""r8"">50532870266</Timestamp><Current dt:dt=""r8"">0</Current><DateUtc dt:dt=""string"">2021-04-12T21:57:48Z</DateUtc></FrequencyChange></FrequencyChanges></Clock>\n"	000_R01_VA_allProc-103-1	60.001	1.0.0.229	1	-1006163330	Professional	2.0.10.356	2.0.10.356	04-12-2021	4/12/2021 9:57:48 PM	17:57:48	2.0.10.252	1	0	0	74200	24	74200	4000	-999999	248511	0	234197	0	Run1Proc	1	1	1	RunList	2	OfficeSmall	8000	0	122199	0	122199	0	122199	0	F1OfficeSmallBlockProc	2.0	1.0	2.0	n/a	n/a	n/a	n/a	n/a	n/a	n/a	n/a	n/a	n/a	n/a	n/a	Run1BlockList	6	n/a	n/a	n/a	n/a	n/a	n/a	n/a	n/a	n/a	n/a	n/a	n/a	n/a	n/a	n/a	n/a	n/a	n/a	n/a	n/a	n/a	n/a	n/a	n/a	n/a	n/a	n/a	n/a	n/a	n/a	n/a	n/a	n/a	n/a	n/a	n/a	n/a	n/a	n/a	n/a	n/a	n/a	n/a	n/a	n/a	n/a	n/a	n/a	n/a	n/a	n/a	n/a	n/a	n/a	n/a	n/a	n/a	n/a	n/a	n/a	n/a	n/a	n/a	n/a	n/a	n/a	n/a	n/a	n/a	n/a	n/a	n/a	n/a	n/a	n/a	6.0	1.0	6.0	n/a	n/a	n/a	n/a	n/a	n/a	n/a	n/a	n/a	n/a	n/a	n/a	F1_06.jpg	500	0	121699	0	121699	0	TrialProc1	F1OfficeSmallBlockList	2500	0	119199	0	119199	0	119199	2500	c	1539	120738	44.999
56	2.5	000_R01_VA_allProc	103	1	"<?xml version=""1.0""?>\n<Clock xmlns:dt=""urn:schemas-microsoft-com:datatypes""><Description dt:dt=""string"">E-Prime Primary Realtime Clock</Description><StartTime><Timestamp dt:dt=""int"">0</Timestamp><DateUtc dt:dt=""string"">2021-04-12T21:57:48Z</DateUtc></StartTime><FrequencyChanges><FrequencyChange><Frequency dt:dt=""r8"">3020410</Frequency><Timestamp dt:dt=""r8"">50532870266</Timestamp><Current dt:dt=""r8"">0</Current><DateUtc dt:dt=""string"">2021-04-12T21:57:48Z</DateUtc></FrequencyChange></FrequencyChanges></Clock>\n"	000_R01_VA_allProc-103-1	60.001	1.0.0.229	1	-1006163330	Professional	2.0.10.356	2.0.10.356	04-12-2021	4/12/2021 9:57:48 PM	17:57:48	2.0.10.252	1	0	0	74200	24	74200	4000	-999999	248511	0	234197	0	Run1Proc	1	1	1	RunList	3	LowLargeED	8000	0	148199	0	148199	0	148199	0	C1LowLargeEDBlockProc	3.0	1.0	3.0	n/a	n/a	n/a	n/a	n/a	n/a	n/a	n/a	n/a	n/a	n/a	n/a	Run1BlockList	1	n/a	n/a	n/a	n/a	n/a	n/a	n/a	n/a	n/a	n/a	n/a	n/a	n/a	n/a	n/a	n/a	n/a	n/a	n/a	n/a	n/a	n/a	n/a	n/a	n/a	n/a	n/a	n/a	n/a	n/a	1.0	1.0	1.0	n/a	n/a	n/a	n/a	n/a	n/a	n/a	n/a	n/a	n/a	n/a	n/a	n/a	n/a	n/a	n/a	n/a	n/a	n/a	n/a	n/a	n/a	n/a	n/a	n/a	n/a	n/a	n/a	n/a	n/a	n/a	n/a	n/a	n/a	n/a	n/a	n/a	n/a	n/a	n/a	n/a	n/a	n/a	n/a	n/a	n/a	n/a	n/a	n/a	n/a	n/a	n/a	n/a	n/a	n/a	n/a	n/a	C1_01.jpg	500	0	132699	0	132699	0	TrialProc1	C1LowLargeEDBlockList	2500	0	130199	0	130199	0	130199	2500	d	2051	132250	55.999
59	2.5	000_R01_VA_allProc	103	1	"<?xml version=""1.0""?>\n<Clock xmlns:dt=""urn:schemas-microsoft-com:datatypes""><Description dt:dt=""string"">E-Prime Primary Realtime Clock</Description><StartTime><Timestamp dt:dt=""int"">0</Timestamp><DateUtc dt:dt=""string"">2021-04-12T21:57:48Z</DateUtc></StartTime><FrequencyChanges><FrequencyChange><Frequency dt:dt=""r8"">3020410</Frequency><Timestamp dt:dt=""r8"">50532870266</Timestamp><Current dt:dt=""r8"">0</Current><DateUtc dt:dt=""string"">2021-04-12T21:57:48Z</DateUtc></FrequencyChange></FrequencyChanges></Clock>\n"	000_R01_VA_allProc-103-1	60.001	1.0.0.229	1	-1006163330	Professional	2.0.10.356	2.0.10.356	04-12-2021	4/12/2021 9:57:48 PM	17:57:48	2.0.10.252	1	0	0	74200	24	74200	4000	-999999	248511	0	234197	0	Run1Proc	1	1	1	RunList	3	LowLargeED	8000	0	148199	0	148199	0	148199	0	C1LowLargeEDBlockProc	3.0	1.0	3.0	n/a	n/a	n/a	n/a	n/a	n/a	n/a	n/a	n/a	n/a	n/a	n/a	Run1BlockList	2	n/a	n/a	n/a	n/a	n/a	n/a	n/a	n/a	n/a	n/a	n/a	n/a	n/a	n/a	n/a	n/a	n/a	n/a	n/a	n/a	n/a	n/a	n/a	n/a	n/a	n/a	n/a	n/a	n/a	n/a	2.0	1.0	2.0	n/a	n/a	n/a	n/a	n/a	n/a	n/a	n/a	n/a	n/a	n/a	n/a	n/a	n/a	n/a	n/a	n/a	n/a	n/a	n/a	n/a	n/a	n/a	n/a	n/a	n/a	n/a	n/a	n/a	n/a	n/a	n/a	n/a	n/a	n/a	n/a	n/a	n/a	n/a	n/a	n/a	n/a	n/a	n/a	n/a	n/a	n/a	n/a	n/a	n/a	n/a	n/a	n/a	n/a	n/a	n/a	n/a	C1_02.jpg	500	0	135699	0	135699	0	TrialProc1	C1LowLargeEDBlockList	2500	0	133199	0	133199	0	133199	2500	d	1530	134729	58.999
62	2.5	000_R01_VA_allProc	103	1	"<?xml version=""1.0""?>\n<Clock xmlns:dt=""urn:schemas-microsoft-com:datatypes""><Description dt:dt=""string"">E-Prime Primary Realtime Clock</Description><StartTime><Timestamp dt:dt=""int"">0</Timestamp><DateUtc dt:dt=""string"">2021-04-12T21:57:48Z</DateUtc></StartTime><FrequencyChanges><FrequencyChange><Frequency dt:dt=""r8"">3020410</Frequency><Timestamp dt:dt=""r8"">50532870266</Timestamp><Current dt:dt=""r8"">0</Current><DateUtc dt:dt=""string"">2021-04-12T21:57:48Z</DateUtc></FrequencyChange></FrequencyChanges></Clock>\n"	000_R01_VA_allProc-103-1	60.001	1.0.0.229	1	-1006163330	Professional	2.0.10.356	2.0.10.356	04-12-2021	4/12/2021 9:57:48 PM	17:57:48	2.0.10.252	1	0	0	74200	24	74200	4000	-999999	248511	0	234197	0	Run1Proc	1	1	1	RunList	3	LowLargeED	8000	0	148199	0	148199	0	148199	0	C1LowLargeEDBlockProc	3.0	1.0	3.0	n/a	n/a	n/a	n/a	n/a	n/a	n/a	n/a	n/a	n/a	n/a	n/a	Run1BlockList	3	n/a	n/a	n/a	n/a	n/a	n/a	n/a	n/a	n/a	n/a	n/a	n/a	n/a	n/a	n/a	n/a	n/a	n/a	n/a	n/a	n/a	n/a	n/a	n/a	n/a	n/a	n/a	n/a	n/a	n/a	3.0	1.0	3.0	n/a	n/a	n/a	n/a	n/a	n/a	n/a	n/a	n/a	n/a	n/a	n/a	n/a	n/a	n/a	n/a	n/a	n/a	n/a	n/a	n/a	n/a	n/a	n/a	n/a	n/a	n/a	n/a	n/a	n/a	n/a	n/a	n/a	n/a	n/a	n/a	n/a	n/a	n/a	n/a	n/a	n/a	n/a	n/a	n/a	n/a	n/a	n/a	n/a	n/a	n/a	n/a	n/a	n/a	n/a	n/a	n/a	C1_03.jpg	500	0	138699	0	138699	0	TrialProc1	C1LowLargeEDBlockList	2500	0	136199	0	136199	0	136199	2500	d	1378	137577	61.999
65	2.5	000_R01_VA_allProc	103	1	"<?xml version=""1.0""?>\n<Clock xmlns:dt=""urn:schemas-microsoft-com:datatypes""><Description dt:dt=""string"">E-Prime Primary Realtime Clock</Description><StartTime><Timestamp dt:dt=""int"">0</Timestamp><DateUtc dt:dt=""string"">2021-04-12T21:57:48Z</DateUtc></StartTime><FrequencyChanges><FrequencyChange><Frequency dt:dt=""r8"">3020410</Frequency><Timestamp dt:dt=""r8"">50532870266</Timestamp><Current dt:dt=""r8"">0</Current><DateUtc dt:dt=""string"">2021-04-12T21:57:48Z</DateUtc></FrequencyChange></FrequencyChanges></Clock>\n"	000_R01_VA_allProc-103-1	60.001	1.0.0.229	1	-1006163330	Professional	2.0.10.356	2.0.10.356	04-12-2021	4/12/2021 9:57:48 PM	17:57:48	2.0.10.252	1	0	0	74200	24	74200	4000	-999999	248511	0	234197	0	Run1Proc	1	1	1	RunList	3	LowLargeED	8000	0	148199	0	148199	0	148199	0	C1LowLargeEDBlockProc	3.0	1.0	3.0	n/a	n/a	n/a	n/a	n/a	n/a	n/a	n/a	n/a	n/a	n/a	n/a	Run1BlockList	4	n/a	n/a	n/a	n/a	n/a	n/a	n/a	n/a	n/a	n/a	n/a	n/a	n/a	n/a	n/a	n/a	n/a	n/a	n/a	n/a	n/a	n/a	n/a	n/a	n/a	n/a	n/a	n/a	n/a	n/a	4.0	1.0	4.0	n/a	n/a	n/a	n/a	n/a	n/a	n/a	n/a	n/a	n/a	n/a	n/a	n/a	n/a	n/a	n/a	n/a	n/a	n/a	n/a	n/a	n/a	n/a	n/a	n/a	n/a	n/a	n/a	n/a	n/a	n/a	n/a	n/a	n/a	n/a	n/a	n/a	n/a	n/a	n/a	n/a	n/a	n/a	n/a	n/a	n/a	n/a	n/a	n/a	n/a	n/a	n/a	n/a	n/a	n/a	n/a	n/a	C1_04.jpg	500	0	141699	0	141699	0	TrialProc1	C1LowLargeEDBlockList	2500	0	139199	0	139199	0	139199	2500	c	1882	141081	64.999
68	2.5	000_R01_VA_allProc	103	1	"<?xml version=""1.0""?>\n<Clock xmlns:dt=""urn:schemas-microsoft-com:datatypes""><Description dt:dt=""string"">E-Prime Primary Realtime Clock</Description><StartTime><Timestamp dt:dt=""int"">0</Timestamp><DateUtc dt:dt=""string"">2021-04-12T21:57:48Z</DateUtc></StartTime><FrequencyChanges><FrequencyChange><Frequency dt:dt=""r8"">3020410</Frequency><Timestamp dt:dt=""r8"">50532870266</Timestamp><Current dt:dt=""r8"">0</Current><DateUtc dt:dt=""string"">2021-04-12T21:57:48Z</DateUtc></FrequencyChange></FrequencyChanges></Clock>\n"	000_R01_VA_allProc-103-1	60.001	1.0.0.229	1	-1006163330	Professional	2.0.10.356	2.0.10.356	04-12-2021	4/12/2021 9:57:48 PM	17:57:48	2.0.10.252	1	0	0	74200	24	74200	4000	-999999	248511	0	234197	0	Run1Proc	1	1	1	RunList	3	LowLargeED	8000	0	148199	0	148199	0	148199	0	C1LowLargeEDBlockProc	3.0	1.0	3.0	n/a	n/a	n/a	n/a	n/a	n/a	n/a	n/a	n/a	n/a	n/a	n/a	Run1BlockList	5	n/a	n/a	n/a	n/a	n/a	n/a	n/a	n/a	n/a	n/a	n/a	n/a	n/a	n/a	n/a	n/a	n/a	n/a	n/a	n/a	n/a	n/a	n/a	n/a	n/a	n/a	n/a	n/a	n/a	n/a	5.0	1.0	5.0	n/a	n/a	n/a	n/a	n/a	n/a	n/a	n/a	n/a	n/a	n/a	n/a	n/a	n/a	n/a	n/a	n/a	n/a	n/a	n/a	n/a	n/a	n/a	n/a	n/a	n/a	n/a	n/a	n/a	n/a	n/a	n/a	n/a	n/a	n/a	n/a	n/a	n/a	n/a	n/a	n/a	n/a	n/a	n/a	n/a	n/a	n/a	n/a	n/a	n/a	n/a	n/a	n/a	n/a	n/a	n/a	n/a	C1_05.jpg	500	0	144699	0	144699	0	TrialProc1	C1LowLargeEDBlockList	2500	0	142199	0	142199	0	142199	2500	c	1410	143609	67.999
71	2.5	000_R01_VA_allProc	103	1	"<?xml version=""1.0""?>\n<Clock xmlns:dt=""urn:schemas-microsoft-com:datatypes""><Description dt:dt=""string"">E-Prime Primary Realtime Clock</Description><StartTime><Timestamp dt:dt=""int"">0</Timestamp><DateUtc dt:dt=""string"">2021-04-12T21:57:48Z</DateUtc></StartTime><FrequencyChanges><FrequencyChange><Frequency dt:dt=""r8"">3020410</Frequency><Timestamp dt:dt=""r8"">50532870266</Timestamp><Current dt:dt=""r8"">0</Current><DateUtc dt:dt=""string"">2021-04-12T21:57:48Z</DateUtc></FrequencyChange></FrequencyChanges></Clock>\n"	000_R01_VA_allProc-103-1	60.001	1.0.0.229	1	-1006163330	Professional	2.0.10.356	2.0.10.356	04-12-2021	4/12/2021 9:57:48 PM	17:57:48	2.0.10.252	1	0	0	74200	24	74200	4000	-999999	248511	0	234197	0	Run1Proc	1	1	1	RunList	3	LowLargeED	8000	0	148199	0	148199	0	148199	0	C1LowLargeEDBlockProc	3.0	1.0	3.0	n/a	n/a	n/a	n/a	n/a	n/a	n/a	n/a	n/a	n/a	n/a	n/a	Run1BlockList	6	n/a	n/a	n/a	n/a	n/a	n/a	n/a	n/a	n/a	n/a	n/a	n/a	n/a	n/a	n/a	n/a	n/a	n/a	n/a	n/a	n/a	n/a	n/a	n/a	n/a	n/a	n/a	n/a	n/a	n/a	6.0	1.0	6.0	n/a	n/a	n/a	n/a	n/a	n/a	n/a	n/a	n/a	n/a	n/a	n/a	n/a	n/a	n/a	n/a	n/a	n/a	n/a	n/a	n/a	n/a	n/a	n/a	n/a	n/a	n/a	n/a	n/a	n/a	n/a	n/a	n/a	n/a	n/a	n/a	n/a	n/a	n/a	n/a	n/a	n/a	n/a	n/a	n/a	n/a	n/a	n/a	n/a	n/a	n/a	n/a	n/a	n/a	n/a	n/a	n/a	C1_06.jpg	500	0	147699	0	147699	0	TrialProc1	C1LowLargeEDBlockList	2500	0	145199	0	145199	0	145199	2500	c	1730	146929	70.999
82	2.5	000_R01_VA_allProc	103	1	"<?xml version=""1.0""?>\n<Clock xmlns:dt=""urn:schemas-microsoft-com:datatypes""><Description dt:dt=""string"">E-Prime Primary Realtime Clock</Description><StartTime><Timestamp dt:dt=""int"">0</Timestamp><DateUtc dt:dt=""string"">2021-04-12T21:57:48Z</DateUtc></StartTime><FrequencyChanges><FrequencyChange><Frequency dt:dt=""r8"">3020410</Frequency><Timestamp dt:dt=""r8"">50532870266</Timestamp><Current dt:dt=""r8"">0</Current><DateUtc dt:dt=""string"">2021-04-12T21:57:48Z</DateUtc></FrequencyChange></FrequencyChanges></Clock>\n"	000_R01_VA_allProc-103-1	60.001	1.0.0.229	1	-1006163330	Professional	2.0.10.356	2.0.10.356	04-12-2021	4/12/2021 9:57:48 PM	17:57:48	2.0.10.252	1	0	0	74200	24	74200	4000	-999999	248511	0	234197	0	Run1Proc	1	1	1	RunList	4	LowSmallED	8000	0	174198	0	174198	0	174198	0	D1LowSmallEDBlockProc	4.0	1.0	4.0	n/a	n/a	n/a	n/a	n/a	n/a	n/a	n/a	n/a	n/a	n/a	n/a	Run1BlockList	1	n/a	n/a	n/a	n/a	n/a	n/a	n/a	n/a	n/a	n/a	n/a	n/a	n/a	n/a	n/a	n/a	n/a	n/a	n/a	n/a	n/a	n/a	n/a	n/a	n/a	n/a	n/a	n/a	n/a	n/a	n/a	n/a	n/a	n/a	n/a	n/a	n/a	n/a	n/a	n/a	n/a	n/a	n/a	n/a	n/a	1.0	1.0	1.0	n/a	n/a	n/a	n/a	n/a	n/a	n/a	n/a	n/a	n/a	n/a	n/a	n/a	n/a	n/a	n/a	n/a	n/a	n/a	n/a	n/a	n/a	n/a	n/a	n/a	n/a	n/a	n/a	n/a	n/a	n/a	n/a	n/a	n/a	n/a	n/a	n/a	n/a	n/a	n/a	n/a	n/a	D1_01.jpg	500	1	158699	0	158698	0	TrialProc1	D1LowSmallEDBlockList	2500	1	156199	1	156199	-1	156198	2500	d	1523	157721	81.998
85	2.5	000_R01_VA_allProc	103	1	"<?xml version=""1.0""?>\n<Clock xmlns:dt=""urn:schemas-microsoft-com:datatypes""><Description dt:dt=""string"">E-Prime Primary Realtime Clock</Description><StartTime><Timestamp dt:dt=""int"">0</Timestamp><DateUtc dt:dt=""string"">2021-04-12T21:57:48Z</DateUtc></StartTime><FrequencyChanges><FrequencyChange><Frequency dt:dt=""r8"">3020410</Frequency><Timestamp dt:dt=""r8"">50532870266</Timestamp><Current dt:dt=""r8"">0</Current><DateUtc dt:dt=""string"">2021-04-12T21:57:48Z</DateUtc></FrequencyChange></FrequencyChanges></Clock>\n"	000_R01_VA_allProc-103-1	60.001	1.0.0.229	1	-1006163330	Professional	2.0.10.356	2.0.10.356	04-12-2021	4/12/2021 9:57:48 PM	17:57:48	2.0.10.252	1	0	0	74200	24	74200	4000	-999999	248511	0	234197	0	Run1Proc	1	1	1	RunList	4	LowSmallED	8000	0	174198	0	174198	0	174198	0	D1LowSmallEDBlockProc	4.0	1.0	4.0	n/a	n/a	n/a	n/a	n/a	n/a	n/a	n/a	n/a	n/a	n/a	n/a	Run1BlockList	2	n/a	n/a	n/a	n/a	n/a	n/a	n/a	n/a	n/a	n/a	n/a	n/a	n/a	n/a	n/a	n/a	n/a	n/a	n/a	n/a	n/a	n/a	n/a	n/a	n/a	n/a	n/a	n/a	n/a	n/a	n/a	n/a	n/a	n/a	n/a	n/a	n/a	n/a	n/a	n/a	n/a	n/a	n/a	n/a	n/a	2.0	1.0	2.0	n/a	n/a	n/a	n/a	n/a	n/a	n/a	n/a	n/a	n/a	n/a	n/a	n/a	n/a	n/a	n/a	n/a	n/a	n/a	n/a	n/a	n/a	n/a	n/a	n/a	n/a	n/a	n/a	n/a	n/a	n/a	n/a	n/a	n/a	n/a	n/a	n/a	n/a	n/a	n/a	n/a	n/a	D1_02.jpg	500	0	161698	0	161698	0	TrialProc1	D1LowSmallEDBlockList	2500	0	159199	0	159198	0	159198	2500	d	1707	160905	84.998
88	2.5	000_R01_VA_allProc	103	1	"<?xml version=""1.0""?>\n<Clock xmlns:dt=""urn:schemas-microsoft-com:datatypes""><Description dt:dt=""string"">E-Prime Primary Realtime Clock</Description><StartTime><Timestamp dt:dt=""int"">0</Timestamp><DateUtc dt:dt=""string"">2021-04-12T21:57:48Z</DateUtc></StartTime><FrequencyChanges><FrequencyChange><Frequency dt:dt=""r8"">3020410</Frequency><Timestamp dt:dt=""r8"">50532870266</Timestamp><Current dt:dt=""r8"">0</Current><DateUtc dt:dt=""string"">2021-04-12T21:57:48Z</DateUtc></FrequencyChange></FrequencyChanges></Clock>\n"	000_R01_VA_allProc-103-1	60.001	1.0.0.229	1	-1006163330	Professional	2.0.10.356	2.0.10.356	04-12-2021	4/12/2021 9:57:48 PM	17:57:48	2.0.10.252	1	0	0	74200	24	74200	4000	-999999	248511	0	234197	0	Run1Proc	1	1	1	RunList	4	LowSmallED	8000	0	174198	0	174198	0	174198	0	D1LowSmallEDBlockProc	4.0	1.0	4.0	n/a	n/a	n/a	n/a	n/a	n/a	n/a	n/a	n/a	n/a	n/a	n/a	Run1BlockList	3	n/a	n/a	n/a	n/a	n/a	n/a	n/a	n/a	n/a	n/a	n/a	n/a	n/a	n/a	n/a	n/a	n/a	n/a	n/a	n/a	n/a	n/a	n/a	n/a	n/a	n/a	n/a	n/a	n/a	n/a	n/a	n/a	n/a	n/a	n/a	n/a	n/a	n/a	n/a	n/a	n/a	n/a	n/a	n/a	n/a	3.0	1.0	3.0	n/a	n/a	n/a	n/a	n/a	n/a	n/a	n/a	n/a	n/a	n/a	n/a	n/a	n/a	n/a	n/a	n/a	n/a	n/a	n/a	n/a	n/a	n/a	n/a	n/a	n/a	n/a	n/a	n/a	n/a	n/a	n/a	n/a	n/a	n/a	n/a	n/a	n/a	n/a	n/a	n/a	n/a	D1_03.jpg	500	0	164698	0	164698	0	TrialProc1	D1LowSmallEDBlockList	2500	0	162198	0	162198	0	162198	2500	c	1443	163641	87.998
91	2.5	000_R01_VA_allProc	103	1	"<?xml version=""1.0""?>\n<Clock xmlns:dt=""urn:schemas-microsoft-com:datatypes""><Description dt:dt=""string"">E-Prime Primary Realtime Clock</Description><StartTime><Timestamp dt:dt=""int"">0</Timestamp><DateUtc dt:dt=""string"">2021-04-12T21:57:48Z</DateUtc></StartTime><FrequencyChanges><FrequencyChange><Frequency dt:dt=""r8"">3020410</Frequency><Timestamp dt:dt=""r8"">50532870266</Timestamp><Current dt:dt=""r8"">0</Current><DateUtc dt:dt=""string"">2021-04-12T21:57:48Z</DateUtc></FrequencyChange></FrequencyChanges></Clock>\n"	000_R01_VA_allProc-103-1	60.001	1.0.0.229	1	-1006163330	Professional	2.0.10.356	2.0.10.356	04-12-2021	4/12/2021 9:57:48 PM	17:57:48	2.0.10.252	1	0	0	74200	24	74200	4000	-999999	248511	0	234197	0	Run1Proc	1	1	1	RunList	4	LowSmallED	8000	0	174198	0	174198	0	174198	0	D1LowSmallEDBlockProc	4.0	1.0	4.0	n/a	n/a	n/a	n/a	n/a	n/a	n/a	n/a	n/a	n/a	n/a	n/a	Run1BlockList	4	n/a	n/a	n/a	n/a	n/a	n/a	n/a	n/a	n/a	n/a	n/a	n/a	n/a	n/a	n/a	n/a	n/a	n/a	n/a	n/a	n/a	n/a	n/a	n/a	n/a	n/a	n/a	n/a	n/a	n/a	n/a	n/a	n/a	n/a	n/a	n/a	n/a	n/a	n/a	n/a	n/a	n/a	n/a	n/a	n/a	4.0	1.0	4.0	n/a	n/a	n/a	n/a	n/a	n/a	n/a	n/a	n/a	n/a	n/a	n/a	n/a	n/a	n/a	n/a	n/a	n/a	n/a	n/a	n/a	n/a	n/a	n/a	n/a	n/a	n/a	n/a	n/a	n/a	n/a	n/a	n/a	n/a	n/a	n/a	n/a	n/a	n/a	n/a	n/a	n/a	D1_04.jpg	500	0	167698	0	167698	0	TrialProc1	D1LowSmallEDBlockList	2500	0	165198	0	165198	0	165198	2500	d	1259	166457	90.998
94	2.5	000_R01_VA_allProc	103	1	"<?xml version=""1.0""?>\n<Clock xmlns:dt=""urn:schemas-microsoft-com:datatypes""><Description dt:dt=""string"">E-Prime Primary Realtime Clock</Description><StartTime><Timestamp dt:dt=""int"">0</Timestamp><DateUtc dt:dt=""string"">2021-04-12T21:57:48Z</DateUtc></StartTime><FrequencyChanges><FrequencyChange><Frequency dt:dt=""r8"">3020410</Frequency><Timestamp dt:dt=""r8"">50532870266</Timestamp><Current dt:dt=""r8"">0</Current><DateUtc dt:dt=""string"">2021-04-12T21:57:48Z</DateUtc></FrequencyChange></FrequencyChanges></Clock>\n"	000_R01_VA_allProc-103-1	60.001	1.0.0.229	1	-1006163330	Professional	2.0.10.356	2.0.10.356	04-12-2021	4/12/2021 9:57:48 PM	17:57:48	2.0.10.252	1	0	0	74200	24	74200	4000	-999999	248511	0	234197	0	Run1Proc	1	1	1	RunList	4	LowSmallED	8000	0	174198	0	174198	0	174198	0	D1LowSmallEDBlockProc	4.0	1.0	4.0	n/a	n/a	n/a	n/a	n/a	n/a	n/a	n/a	n/a	n/a	n/a	n/a	Run1BlockList	5	n/a	n/a	n/a	n/a	n/a	n/a	n/a	n/a	n/a	n/a	n/a	n/a	n/a	n/a	n/a	n/a	n/a	n/a	n/a	n/a	n/a	n/a	n/a	n/a	n/a	n/a	n/a	n/a	n/a	n/a	n/a	n/a	n/a	n/a	n/a	n/a	n/a	n/a	n/a	n/a	n/a	n/a	n/a	n/a	n/a	5.0	1.0	5.0	n/a	n/a	n/a	n/a	n/a	n/a	n/a	n/a	n/a	n/a	n/a	n/a	n/a	n/a	n/a	n/a	n/a	n/a	n/a	n/a	n/a	n/a	n/a	n/a	n/a	n/a	n/a	n/a	n/a	n/a	n/a	n/a	n/a	n/a	n/a	n/a	n/a	n/a	n/a	n/a	n/a	n/a	D1_05.jpg	500	0	170698	0	170698	0	TrialProc1	D1LowSmallEDBlockList	2500	0	168198	0	168198	0	168198	2500	c	1899	170097	93.998
97	2.5	000_R01_VA_allProc	103	1	"<?xml version=""1.0""?>\n<Clock xmlns:dt=""urn:schemas-microsoft-com:datatypes""><Description dt:dt=""string"">E-Prime Primary Realtime Clock</Description><StartTime><Timestamp dt:dt=""int"">0</Timestamp><DateUtc dt:dt=""string"">2021-04-12T21:57:48Z</DateUtc></StartTime><FrequencyChanges><FrequencyChange><Frequency dt:dt=""r8"">3020410</Frequency><Timestamp dt:dt=""r8"">50532870266</Timestamp><Current dt:dt=""r8"">0</Current><DateUtc dt:dt=""string"">2021-04-12T21:57:48Z</DateUtc></FrequencyChange></FrequencyChanges></Clock>\n"	000_R01_VA_allProc-103-1	60.001	1.0.0.229	1	-1006163330	Professional	2.0.10.356	2.0.10.356	04-12-2021	4/12/2021 9:57:48 PM	17:57:48	2.0.10.252	1	0	0	74200	24	74200	4000	-999999	248511	0	234197	0	Run1Proc	1	1	1	RunList	4	LowSmallED	8000	0	174198	0	174198	0	174198	0	D1LowSmallEDBlockProc	4.0	1.0	4.0	n/a	n/a	n/a	n/a	n/a	n/a	n/a	n/a	n/a	n/a	n/a	n/a	Run1BlockList	6	n/a	n/a	n/a	n/a	n/a	n/a	n/a	n/a	n/a	n/a	n/a	n/a	n/a	n/a	n/a	n/a	n/a	n/a	n/a	n/a	n/a	n/a	n/a	n/a	n/a	n/a	n/a	n/a	n/a	n/a	n/a	n/a	n/a	n/a	n/a	n/a	n/a	n/a	n/a	n/a	n/a	n/a	n/a	n/a	n/a	6.0	1.0	6.0	n/a	n/a	n/a	n/a	n/a	n/a	n/a	n/a	n/a	n/a	n/a	n/a	n/a	n/a	n/a	n/a	n/a	n/a	n/a	n/a	n/a	n/a	n/a	n/a	n/a	n/a	n/a	n/a	n/a	n/a	n/a	n/a	n/a	n/a	n/a	n/a	n/a	n/a	n/a	n/a	n/a	n/a	D1_06.jpg	500	0	173698	0	173698	0	TrialProc1	D1LowSmallEDBlockList	2500	0	171198	0	171198	0	171198	2500	d	1563	172761	96.998
108	2.5	000_R01_VA_allProc	103	1	"<?xml version=""1.0""?>\n<Clock xmlns:dt=""urn:schemas-microsoft-com:datatypes""><Description dt:dt=""string"">E-Prime Primary Realtime Clock</Description><StartTime><Timestamp dt:dt=""int"">0</Timestamp><DateUtc dt:dt=""string"">2021-04-12T21:57:48Z</DateUtc></StartTime><FrequencyChanges><FrequencyChange><Frequency dt:dt=""r8"">3020410</Frequency><Timestamp dt:dt=""r8"">50532870266</Timestamp><Current dt:dt=""r8"">0</Current><DateUtc dt:dt=""string"">2021-04-12T21:57:48Z</DateUtc></FrequencyChange></FrequencyChanges></Clock>\n"	000_R01_VA_allProc-103-1	60.001	1.0.0.229	1	-1006163330	Professional	2.0.10.356	2.0.10.356	04-12-2021	4/12/2021 9:57:48 PM	17:57:48	2.0.10.252	1	0	0	74200	24	74200	4000	-999999	248511	0	234197	0	Run1Proc	1	1	1	RunList	5	OfficeLarge	8000	0	200198	0	200198	0	200198	0	E1OfficeLargeBlockProc	5.0	1.0	5.0	n/a	n/a	n/a	n/a	n/a	n/a	n/a	n/a	n/a	n/a	n/a	n/a	Run1BlockList	1	n/a	n/a	n/a	n/a	n/a	n/a	n/a	n/a	n/a	n/a	n/a	n/a	n/a	n/a	n/a	n/a	n/a	n/a	n/a	n/a	n/a	n/a	n/a	n/a	n/a	n/a	n/a	n/a	n/a	n/a	n/a	n/a	n/a	n/a	n/a	n/a	n/a	n/a	n/a	n/a	n/a	n/a	n/a	n/a	n/a	n/a	n/a	n/a	n/a	n/a	n/a	n/a	n/a	n/a	n/a	n/a	n/a	n/a	n/a	n/a	1.0	1.0	1.0	n/a	n/a	n/a	n/a	n/a	n/a	n/a	n/a	n/a	n/a	n/a	n/a	n/a	n/a	n/a	n/a	n/a	n/a	n/a	n/a	n/a	n/a	n/a	n/a	n/a	n/a	n/a	E1_01.jpg	500	0	184698	0	184698	0	TrialProc1	E1OfficeLargeBlockList	2500	0	182198	0	182198	0	182198	2500	c	2027	184225	107.998
111	2.5	000_R01_VA_allProc	103	1	"<?xml version=""1.0""?>\n<Clock xmlns:dt=""urn:schemas-microsoft-com:datatypes""><Description dt:dt=""string"">E-Prime Primary Realtime Clock</Description><StartTime><Timestamp dt:dt=""int"">0</Timestamp><DateUtc dt:dt=""string"">2021-04-12T21:57:48Z</DateUtc></StartTime><FrequencyChanges><FrequencyChange><Frequency dt:dt=""r8"">3020410</Frequency><Timestamp dt:dt=""r8"">50532870266</Timestamp><Current dt:dt=""r8"">0</Current><DateUtc dt:dt=""string"">2021-04-12T21:57:48Z</DateUtc></FrequencyChange></FrequencyChanges></Clock>\n"	000_R01_VA_allProc-103-1	60.001	1.0.0.229	1	-1006163330	Professional	2.0.10.356	2.0.10.356	04-12-2021	4/12/2021 9:57:48 PM	17:57:48	2.0.10.252	1	0	0	74200	24	74200	4000	-999999	248511	0	234197	0	Run1Proc	1	1	1	RunList	5	OfficeLarge	8000	0	200198	0	200198	0	200198	0	E1OfficeLargeBlockProc	5.0	1.0	5.0	n/a	n/a	n/a	n/a	n/a	n/a	n/a	n/a	n/a	n/a	n/a	n/a	Run1BlockList	2	n/a	n/a	n/a	n/a	n/a	n/a	n/a	n/a	n/a	n/a	n/a	n/a	n/a	n/a	n/a	n/a	n/a	n/a	n/a	n/a	n/a	n/a	n/a	n/a	n/a	n/a	n/a	n/a	n/a	n/a	n/a	n/a	n/a	n/a	n/a	n/a	n/a	n/a	n/a	n/a	n/a	n/a	n/a	n/a	n/a	n/a	n/a	n/a	n/a	n/a	n/a	n/a	n/a	n/a	n/a	n/a	n/a	n/a	n/a	n/a	2.0	1.0	2.0	n/a	n/a	n/a	n/a	n/a	n/a	n/a	n/a	n/a	n/a	n/a	n/a	n/a	n/a	n/a	n/a	n/a	n/a	n/a	n/a	n/a	n/a	n/a	n/a	n/a	n/a	n/a	E1_02.jpg	500	0	187698	0	187698	0	TrialProc1	E1OfficeLargeBlockList	2500	0	185198	0	185198	0	185198	2500	d	1106	186304	110.998
114	2.5	000_R01_VA_allProc	103	1	"<?xml version=""1.0""?>\n<Clock xmlns:dt=""urn:schemas-microsoft-com:datatypes""><Description dt:dt=""string"">E-Prime Primary Realtime Clock</Description><StartTime><Timestamp dt:dt=""int"">0</Timestamp><DateUtc dt:dt=""string"">2021-04-12T21:57:48Z</DateUtc></StartTime><FrequencyChanges><FrequencyChange><Frequency dt:dt=""r8"">3020410</Frequency><Timestamp dt:dt=""r8"">50532870266</Timestamp><Current dt:dt=""r8"">0</Current><DateUtc dt:dt=""string"">2021-04-12T21:57:48Z</DateUtc></FrequencyChange></FrequencyChanges></Clock>\n"	000_R01_VA_allProc-103-1	60.001	1.0.0.229	1	-1006163330	Professional	2.0.10.356	2.0.10.356	04-12-2021	4/12/2021 9:57:48 PM	17:57:48	2.0.10.252	1	0	0	74200	24	74200	4000	-999999	248511	0	234197	0	Run1Proc	1	1	1	RunList	5	OfficeLarge	8000	0	200198	0	200198	0	200198	0	E1OfficeLargeBlockProc	5.0	1.0	5.0	n/a	n/a	n/a	n/a	n/a	n/a	n/a	n/a	n/a	n/a	n/a	n/a	Run1BlockList	3	n/a	n/a	n/a	n/a	n/a	n/a	n/a	n/a	n/a	n/a	n/a	n/a	n/a	n/a	n/a	n/a	n/a	n/a	n/a	n/a	n/a	n/a	n/a	n/a	n/a	n/a	n/a	n/a	n/a	n/a	n/a	n/a	n/a	n/a	n/a	n/a	n/a	n/a	n/a	n/a	n/a	n/a	n/a	n/a	n/a	n/a	n/a	n/a	n/a	n/a	n/a	n/a	n/a	n/a	n/a	n/a	n/a	n/a	n/a	n/a	3.0	1.0	3.0	n/a	n/a	n/a	n/a	n/a	n/a	n/a	n/a	n/a	n/a	n/a	n/a	n/a	n/a	n/a	n/a	n/a	n/a	n/a	n/a	n/a	n/a	n/a	n/a	n/a	n/a	n/a	E1_03.jpg	500	0	190698	0	190698	0	TrialProc1	E1OfficeLargeBlockList	2500	0	188198	0	188198	0	188198	2500	c	1738	189936	113.998
117	2.5	000_R01_VA_allProc	103	1	"<?xml version=""1.0""?>\n<Clock xmlns:dt=""urn:schemas-microsoft-com:datatypes""><Description dt:dt=""string"">E-Prime Primary Realtime Clock</Description><StartTime><Timestamp dt:dt=""int"">0</Timestamp><DateUtc dt:dt=""string"">2021-04-12T21:57:48Z</DateUtc></StartTime><FrequencyChanges><FrequencyChange><Frequency dt:dt=""r8"">3020410</Frequency><Timestamp dt:dt=""r8"">50532870266</Timestamp><Current dt:dt=""r8"">0</Current><DateUtc dt:dt=""string"">2021-04-12T21:57:48Z</DateUtc></FrequencyChange></FrequencyChanges></Clock>\n"	000_R01_VA_allProc-103-1	60.001	1.0.0.229	1	-1006163330	Professional	2.0.10.356	2.0.10.356	04-12-2021	4/12/2021 9:57:48 PM	17:57:48	2.0.10.252	1	0	0	74200	24	74200	4000	-999999	248511	0	234197	0	Run1Proc	1	1	1	RunList	5	OfficeLarge	8000	0	200198	0	200198	0	200198	0	E1OfficeLargeBlockProc	5.0	1.0	5.0	n/a	n/a	n/a	n/a	n/a	n/a	n/a	n/a	n/a	n/a	n/a	n/a	Run1BlockList	4	n/a	n/a	n/a	n/a	n/a	n/a	n/a	n/a	n/a	n/a	n/a	n/a	n/a	n/a	n/a	n/a	n/a	n/a	n/a	n/a	n/a	n/a	n/a	n/a	n/a	n/a	n/a	n/a	n/a	n/a	n/a	n/a	n/a	n/a	n/a	n/a	n/a	n/a	n/a	n/a	n/a	n/a	n/a	n/a	n/a	n/a	n/a	n/a	n/a	n/a	n/a	n/a	n/a	n/a	n/a	n/a	n/a	n/a	n/a	n/a	4.0	1.0	4.0	n/a	n/a	n/a	n/a	n/a	n/a	n/a	n/a	n/a	n/a	n/a	n/a	n/a	n/a	n/a	n/a	n/a	n/a	n/a	n/a	n/a	n/a	n/a	n/a	n/a	n/a	n/a	E1_04.jpg	500	0	193698	0	193698	0	TrialProc1	E1OfficeLargeBlockList	2500	0	191198	0	191198	0	191198	2500	d	1498	192696	116.998
120	2.5	000_R01_VA_allProc	103	1	"<?xml version=""1.0""?>\n<Clock xmlns:dt=""urn:schemas-microsoft-com:datatypes""><Description dt:dt=""string"">E-Prime Primary Realtime Clock</Description><StartTime><Timestamp dt:dt=""int"">0</Timestamp><DateUtc dt:dt=""string"">2021-04-12T21:57:48Z</DateUtc></StartTime><FrequencyChanges><FrequencyChange><Frequency dt:dt=""r8"">3020410</Frequency><Timestamp dt:dt=""r8"">50532870266</Timestamp><Current dt:dt=""r8"">0</Current><DateUtc dt:dt=""string"">2021-04-12T21:57:48Z</DateUtc></FrequencyChange></FrequencyChanges></Clock>\n"	000_R01_VA_allProc-103-1	60.001	1.0.0.229	1	-1006163330	Professional	2.0.10.356	2.0.10.356	04-12-2021	4/12/2021 9:57:48 PM	17:57:48	2.0.10.252	1	0	0	74200	24	74200	4000	-999999	248511	0	234197	0	Run1Proc	1	1	1	RunList	5	OfficeLarge	8000	0	200198	0	200198	0	200198	0	E1OfficeLargeBlockProc	5.0	1.0	5.0	n/a	n/a	n/a	n/a	n/a	n/a	n/a	n/a	n/a	n/a	n/a	n/a	Run1BlockList	5	n/a	n/a	n/a	n/a	n/a	n/a	n/a	n/a	n/a	n/a	n/a	n/a	n/a	n/a	n/a	n/a	n/a	n/a	n/a	n/a	n/a	n/a	n/a	n/a	n/a	n/a	n/a	n/a	n/a	n/a	n/a	n/a	n/a	n/a	n/a	n/a	n/a	n/a	n/a	n/a	n/a	n/a	n/a	n/a	n/a	n/a	n/a	n/a	n/a	n/a	n/a	n/a	n/a	n/a	n/a	n/a	n/a	n/a	n/a	n/a	5.0	1.0	5.0	n/a	n/a	n/a	n/a	n/a	n/a	n/a	n/a	n/a	n/a	n/a	n/a	n/a	n/a	n/a	n/a	n/a	n/a	n/a	n/a	n/a	n/a	n/a	n/a	n/a	n/a	n/a	E1_05.jpg	500	0	196698	0	196698	0	TrialProc1	E1OfficeLargeBlockList	2500	0	194198	0	194198	0	194198	2500	c	2162	196360	119.998
123	2.5	000_R01_VA_allProc	103	1	"<?xml version=""1.0""?>\n<Clock xmlns:dt=""urn:schemas-microsoft-com:datatypes""><Description dt:dt=""string"">E-Prime Primary Realtime Clock</Description><StartTime><Timestamp dt:dt=""int"">0</Timestamp><DateUtc dt:dt=""string"">2021-04-12T21:57:48Z</DateUtc></StartTime><FrequencyChanges><FrequencyChange><Frequency dt:dt=""r8"">3020410</Frequency><Timestamp dt:dt=""r8"">50532870266</Timestamp><Current dt:dt=""r8"">0</Current><DateUtc dt:dt=""string"">2021-04-12T21:57:48Z</DateUtc></FrequencyChange></FrequencyChanges></Clock>\n"	000_R01_VA_allProc-103-1	60.001	1.0.0.229	1	-1006163330	Professional	2.0.10.356	2.0.10.356	04-12-2021	4/12/2021 9:57:48 PM	17:57:48	2.0.10.252	1	0	0	74200	24	74200	4000	-999999	248511	0	234197	0	Run1Proc	1	1	1	RunList	5	OfficeLarge	8000	0	200198	0	200198	0	200198	0	E1OfficeLargeBlockProc	5.0	1.0	5.0	n/a	n/a	n/a	n/a	n/a	n/a	n/a	n/a	n/a	n/a	n/a	n/a	Run1BlockList	6	n/a	n/a	n/a	n/a	n/a	n/a	n/a	n/a	n/a	n/a	n/a	n/a	n/a	n/a	n/a	n/a	n/a	n/a	n/a	n/a	n/a	n/a	n/a	n/a	n/a	n/a	n/a	n/a	n/a	n/a	n/a	n/a	n/a	n/a	n/a	n/a	n/a	n/a	n/a	n/a	n/a	n/a	n/a	n/a	n/a	n/a	n/a	n/a	n/a	n/a	n/a	n/a	n/a	n/a	n/a	n/a	n/a	n/a	n/a	n/a	6.0	1.0	6.0	n/a	n/a	n/a	n/a	n/a	n/a	n/a	n/a	n/a	n/a	n/a	n/a	n/a	n/a	n/a	n/a	n/a	n/a	n/a	n/a	n/a	n/a	n/a	n/a	n/a	n/a	n/a	E1_06.jpg	500	0	199698	0	199698	0	TrialProc1	E1OfficeLargeBlockList	2500	0	197198	0	197198	0	197198	2500	c	1946	199144	122.998
134	2.5	000_R01_VA_allProc	103	1	"<?xml version=""1.0""?>\n<Clock xmlns:dt=""urn:schemas-microsoft-com:datatypes""><Description dt:dt=""string"">E-Prime Primary Realtime Clock</Description><StartTime><Timestamp dt:dt=""int"">0</Timestamp><DateUtc dt:dt=""string"">2021-04-12T21:57:48Z</DateUtc></StartTime><FrequencyChanges><FrequencyChange><Frequency dt:dt=""r8"">3020410</Frequency><Timestamp dt:dt=""r8"">50532870266</Timestamp><Current dt:dt=""r8"">0</Current><DateUtc dt:dt=""string"">2021-04-12T21:57:48Z</DateUtc></FrequencyChange></FrequencyChanges></Clock>\n"	000_R01_VA_allProc-103-1	60.001	1.0.0.229	1	-1006163330	Professional	2.0.10.356	2.0.10.356	04-12-2021	4/12/2021 9:57:48 PM	17:57:48	2.0.10.252	1	0	0	74200	24	74200	4000	-999999	248511	0	234197	0	Run1Proc	1	1	1	RunList	6	HighSmallED	8000	0	226197	0	226197	0	226197	0	B1HighSmallEDBlockProc	6.0	1.0	6.0	n/a	n/a	n/a	n/a	n/a	n/a	n/a	n/a	n/a	n/a	n/a	n/a	Run1BlockList	1	n/a	n/a	n/a	n/a	n/a	n/a	n/a	n/a	n/a	n/a	n/a	n/a	n/a	n/a	n/a	1.0	1.0	1.0	n/a	n/a	n/a	n/a	n/a	n/a	n/a	n/a	n/a	n/a	n/a	n/a	n/a	n/a	n/a	n/a	n/a	n/a	n/a	n/a	n/a	n/a	n/a	n/a	n/a	n/a	n/a	n/a	n/a	n/a	n/a	n/a	n/a	n/a	n/a	n/a	n/a	n/a	n/a	n/a	n/a	n/a	n/a	n/a	n/a	n/a	n/a	n/a	n/a	n/a	n/a	n/a	n/a	n/a	n/a	n/a	n/a	n/a	n/a	n/a	n/a	n/a	n/a	n/a	n/a	n/a	n/a	n/a	n/a	n/a	n/a	n/a	B1_01.jpg	500	0	210697	0	210697	0	TrialProc1	B1HighSmallEDBlockList	2500	0	208197	0	208197	-1	208197	2500	c	1427	209624	133.997
137	2.5	000_R01_VA_allProc	103	1	"<?xml version=""1.0""?>\n<Clock xmlns:dt=""urn:schemas-microsoft-com:datatypes""><Description dt:dt=""string"">E-Prime Primary Realtime Clock</Description><StartTime><Timestamp dt:dt=""int"">0</Timestamp><DateUtc dt:dt=""string"">2021-04-12T21:57:48Z</DateUtc></StartTime><FrequencyChanges><FrequencyChange><Frequency dt:dt=""r8"">3020410</Frequency><Timestamp dt:dt=""r8"">50532870266</Timestamp><Current dt:dt=""r8"">0</Current><DateUtc dt:dt=""string"">2021-04-12T21:57:48Z</DateUtc></FrequencyChange></FrequencyChanges></Clock>\n"	000_R01_VA_allProc-103-1	60.001	1.0.0.229	1	-1006163330	Professional	2.0.10.356	2.0.10.356	04-12-2021	4/12/2021 9:57:48 PM	17:57:48	2.0.10.252	1	0	0	74200	24	74200	4000	-999999	248511	0	234197	0	Run1Proc	1	1	1	RunList	6	HighSmallED	8000	0	226197	0	226197	0	226197	0	B1HighSmallEDBlockProc	6.0	1.0	6.0	n/a	n/a	n/a	n/a	n/a	n/a	n/a	n/a	n/a	n/a	n/a	n/a	Run1BlockList	2	n/a	n/a	n/a	n/a	n/a	n/a	n/a	n/a	n/a	n/a	n/a	n/a	n/a	n/a	n/a	2.0	1.0	2.0	n/a	n/a	n/a	n/a	n/a	n/a	n/a	n/a	n/a	n/a	n/a	n/a	n/a	n/a	n/a	n/a	n/a	n/a	n/a	n/a	n/a	n/a	n/a	n/a	n/a	n/a	n/a	n/a	n/a	n/a	n/a	n/a	n/a	n/a	n/a	n/a	n/a	n/a	n/a	n/a	n/a	n/a	n/a	n/a	n/a	n/a	n/a	n/a	n/a	n/a	n/a	n/a	n/a	n/a	n/a	n/a	n/a	n/a	n/a	n/a	n/a	n/a	n/a	n/a	n/a	n/a	n/a	n/a	n/a	n/a	n/a	n/a	B1_02.jpg	500	0	213697	0	213697	0	TrialProc1	B1HighSmallEDBlockList	2500	0	211197	0	211197	0	211197	2500	d	1371	212568	136.997
140	2.5	000_R01_VA_allProc	103	1	"<?xml version=""1.0""?>\n<Clock xmlns:dt=""urn:schemas-microsoft-com:datatypes""><Description dt:dt=""string"">E-Prime Primary Realtime Clock</Description><StartTime><Timestamp dt:dt=""int"">0</Timestamp><DateUtc dt:dt=""string"">2021-04-12T21:57:48Z</DateUtc></StartTime><FrequencyChanges><FrequencyChange><Frequency dt:dt=""r8"">3020410</Frequency><Timestamp dt:dt=""r8"">50532870266</Timestamp><Current dt:dt=""r8"">0</Current><DateUtc dt:dt=""string"">2021-04-12T21:57:48Z</DateUtc></FrequencyChange></FrequencyChanges></Clock>\n"	000_R01_VA_allProc-103-1	60.001	1.0.0.229	1	-1006163330	Professional	2.0.10.356	2.0.10.356	04-12-2021	4/12/2021 9:57:48 PM	17:57:48	2.0.10.252	1	0	0	74200	24	74200	4000	-999999	248511	0	234197	0	Run1Proc	1	1	1	RunList	6	HighSmallED	8000	0	226197	0	226197	0	226197	0	B1HighSmallEDBlockProc	6.0	1.0	6.0	n/a	n/a	n/a	n/a	n/a	n/a	n/a	n/a	n/a	n/a	n/a	n/a	Run1BlockList	3	n/a	n/a	n/a	n/a	n/a	n/a	n/a	n/a	n/a	n/a	n/a	n/a	n/a	n/a	n/a	3.0	1.0	3.0	n/a	n/a	n/a	n/a	n/a	n/a	n/a	n/a	n/a	n/a	n/a	n/a	n/a	n/a	n/a	n/a	n/a	n/a	n/a	n/a	n/a	n/a	n/a	n/a	n/a	n/a	n/a	n/a	n/a	n/a	n/a	n/a	n/a	n/a	n/a	n/a	n/a	n/a	n/a	n/a	n/a	n/a	n/a	n/a	n/a	n/a	n/a	n/a	n/a	n/a	n/a	n/a	n/a	n/a	n/a	n/a	n/a	n/a	n/a	n/a	n/a	n/a	n/a	n/a	n/a	n/a	n/a	n/a	n/a	n/a	n/a	n/a	B1_03.jpg	500	0	216697	0	216697	0	TrialProc1	B1HighSmallEDBlockList	2500	0	214197	0	214197	0	214197	2500	d	1211	215408	139.997
143	2.5	000_R01_VA_allProc	103	1	"<?xml version=""1.0""?>\n<Clock xmlns:dt=""urn:schemas-microsoft-com:datatypes""><Description dt:dt=""string"">E-Prime Primary Realtime Clock</Description><StartTime><Timestamp dt:dt=""int"">0</Timestamp><DateUtc dt:dt=""string"">2021-04-12T21:57:48Z</DateUtc></StartTime><FrequencyChanges><FrequencyChange><Frequency dt:dt=""r8"">3020410</Frequency><Timestamp dt:dt=""r8"">50532870266</Timestamp><Current dt:dt=""r8"">0</Current><DateUtc dt:dt=""string"">2021-04-12T21:57:48Z</DateUtc></FrequencyChange></FrequencyChanges></Clock>\n"	000_R01_VA_allProc-103-1	60.001	1.0.0.229	1	-1006163330	Professional	2.0.10.356	2.0.10.356	04-12-2021	4/12/2021 9:57:48 PM	17:57:48	2.0.10.252	1	0	0	74200	24	74200	4000	-999999	248511	0	234197	0	Run1Proc	1	1	1	RunList	6	HighSmallED	8000	0	226197	0	226197	0	226197	0	B1HighSmallEDBlockProc	6.0	1.0	6.0	n/a	n/a	n/a	n/a	n/a	n/a	n/a	n/a	n/a	n/a	n/a	n/a	Run1BlockList	4	n/a	n/a	n/a	n/a	n/a	n/a	n/a	n/a	n/a	n/a	n/a	n/a	n/a	n/a	n/a	4.0	1.0	4.0	n/a	n/a	n/a	n/a	n/a	n/a	n/a	n/a	n/a	n/a	n/a	n/a	n/a	n/a	n/a	n/a	n/a	n/a	n/a	n/a	n/a	n/a	n/a	n/a	n/a	n/a	n/a	n/a	n/a	n/a	n/a	n/a	n/a	n/a	n/a	n/a	n/a	n/a	n/a	n/a	n/a	n/a	n/a	n/a	n/a	n/a	n/a	n/a	n/a	n/a	n/a	n/a	n/a	n/a	n/a	n/a	n/a	n/a	n/a	n/a	n/a	n/a	n/a	n/a	n/a	n/a	n/a	n/a	n/a	n/a	n/a	n/a	B1_04.jpg	500	0	219697	0	219697	0	TrialProc1	B1HighSmallEDBlockList	2500	0	217197	0	217197	0	217197	2500	d	1443	218640	142.997
146	2.5	000_R01_VA_allProc	103	1	"<?xml version=""1.0""?>\n<Clock xmlns:dt=""urn:schemas-microsoft-com:datatypes""><Description dt:dt=""string"">E-Prime Primary Realtime Clock</Description><StartTime><Timestamp dt:dt=""int"">0</Timestamp><DateUtc dt:dt=""string"">2021-04-12T21:57:48Z</DateUtc></StartTime><FrequencyChanges><FrequencyChange><Frequency dt:dt=""r8"">3020410</Frequency><Timestamp dt:dt=""r8"">50532870266</Timestamp><Current dt:dt=""r8"">0</Current><DateUtc dt:dt=""string"">2021-04-12T21:57:48Z</DateUtc></FrequencyChange></FrequencyChanges></Clock>\n"	000_R01_VA_allProc-103-1	60.001	1.0.0.229	1	-1006163330	Professional	2.0.10.356	2.0.10.356	04-12-2021	4/12/2021 9:57:48 PM	17:57:48	2.0.10.252	1	0	0	74200	24	74200	4000	-999999	248511	0	234197	0	Run1Proc	1	1	1	RunList	6	HighSmallED	8000	0	226197	0	226197	0	226197	0	B1HighSmallEDBlockProc	6.0	1.0	6.0	n/a	n/a	n/a	n/a	n/a	n/a	n/a	n/a	n/a	n/a	n/a	n/a	Run1BlockList	5	n/a	n/a	n/a	n/a	n/a	n/a	n/a	n/a	n/a	n/a	n/a	n/a	n/a	n/a	n/a	5.0	1.0	5.0	n/a	n/a	n/a	n/a	n/a	n/a	n/a	n/a	n/a	n/a	n/a	n/a	n/a	n/a	n/a	n/a	n/a	n/a	n/a	n/a	n/a	n/a	n/a	n/a	n/a	n/a	n/a	n/a	n/a	n/a	n/a	n/a	n/a	n/a	n/a	n/a	n/a	n/a	n/a	n/a	n/a	n/a	n/a	n/a	n/a	n/a	n/a	n/a	n/a	n/a	n/a	n/a	n/a	n/a	n/a	n/a	n/a	n/a	n/a	n/a	n/a	n/a	n/a	n/a	n/a	n/a	n/a	n/a	n/a	n/a	n/a	n/a	B1_05.jpg	500	0	222697	0	222697	0	TrialProc1	B1HighSmallEDBlockList	2500	0	220197	0	220197	0	220197	2500	c	1555	221752	145.997
149	2.5	000_R01_VA_allProc	103	1	"<?xml version=""1.0""?>\n<Clock xmlns:dt=""urn:schemas-microsoft-com:datatypes""><Description dt:dt=""string"">E-Prime Primary Realtime Clock</Description><StartTime><Timestamp dt:dt=""int"">0</Timestamp><DateUtc dt:dt=""string"">2021-04-12T21:57:48Z</DateUtc></StartTime><FrequencyChanges><FrequencyChange><Frequency dt:dt=""r8"">3020410</Frequency><Timestamp dt:dt=""r8"">50532870266</Timestamp><Current dt:dt=""r8"">0</Current><DateUtc dt:dt=""string"">2021-04-12T21:57:48Z</DateUtc></FrequencyChange></FrequencyChanges></Clock>\n"	000_R01_VA_allProc-103-1	60.001	1.0.0.229	1	-1006163330	Professional	2.0.10.356	2.0.10.356	04-12-2021	4/12/2021 9:57:48 PM	17:57:48	2.0.10.252	1	0	0	74200	24	74200	4000	-999999	248511	0	234197	0	Run1Proc	1	1	1	RunList	6	HighSmallED	8000	0	226197	0	226197	0	226197	0	B1HighSmallEDBlockProc	6.0	1.0	6.0	n/a	n/a	n/a	n/a	n/a	n/a	n/a	n/a	n/a	n/a	n/a	n/a	Run1BlockList	6	n/a	n/a	n/a	n/a	n/a	n/a	n/a	n/a	n/a	n/a	n/a	n/a	n/a	n/a	n/a	6.0	1.0	6.0	n/a	n/a	n/a	n/a	n/a	n/a	n/a	n/a	n/a	n/a	n/a	n/a	n/a	n/a	n/a	n/a	n/a	n/a	n/a	n/a	n/a	n/a	n/a	n/a	n/a	n/a	n/a	n/a	n/a	n/a	n/a	n/a	n/a	n/a	n/a	n/a	n/a	n/a	n/a	n/a	n/a	n/a	n/a	n/a	n/a	n/a	n/a	n/a	n/a	n/a	n/a	n/a	n/a	n/a	n/a	n/a	n/a	n/a	n/a	n/a	n/a	n/a	n/a	n/a	n/a	n/a	n/a	n/a	n/a	n/a	n/a	n/a	B1_06.jpg	500	0	225697	0	225697	0	TrialProc1	B1HighSmallEDBlockList	2500	0	223197	0	223197	0	223197	2500	c	1963	225160	148.997
