onset	duration	experiment_name	sub	ses	clock_information	datafile_basename	display_refreshrate	experiment_version	group	randomseed	runtime_capabilities	runtime_version	runtimeversionexpected	session_date	session_start_date_time_utc	session_time	studio_version	block	fixation2trs_durationerror	fixation2trs_offsetdelay	fixation2trs_offsettime	fixation2trs_onsetdelay	fixation2trs_onsettime	fixation2trs_onsettoonsettime	goodwork_durationerror	goodwork_finishtime	goodwork_onsetdelay	goodwork_onsettime	goodwork_onsettoonsettime	procedure_block	runlist	runlist_cycle	runlist_sample	running_block	trial	condition	interblockinterval_duration	interblockinterval_durationerror	interblockinterval_finishtime	interblockinterval_offsetdelay	interblockinterval_offsettime	interblockinterval_onsetdelay	interblockinterval_onsettime	interblockinterval_onsettoonsettime	procedure_trial	run1blocklist	run1blocklist_cycle	run1blocklist_sample	run2blocklist	run2blocklist_cycle	run2blocklist_sample	run3blocklist	run3blocklist_cycle	run3blocklist_sample	run4blocklist	run4blocklist_cycle	run4blocklist_sample	run5blocklist	run5blocklist_cycle	run5blocklist_sample	running_trial	subtrial	a1highlargeedblocklist	a1highlargeedblocklist_cycle	a1highlargeedblocklist_sample	a2highlargeedblocklist	a2highlargeedblocklist_cycle	a2highlargeedblocklist_sample	a3highlargeedblocklist	a3highlargeedblocklist_cycle	a3highlargeedblocklist_sample	a4highlargeedblocklist	a4highlargeedblocklist_cycle	a4highlargeedblocklist_sample	a5highlargeedblocklist	a5highlargeedblocklist_cycle	a5highlargeedblocklist_sample	b1highsmalledblocklist	b1highsmalledblocklist_cycle	b1highsmalledblocklist_sample	b2highsmalledblocklist	b2highsmalledblocklist_cycle	b2highsmalledblocklist_sample	b3highsmalledblocklist	b3highsmalledblocklist_cycle	b3highsmalledblocklist_sample	b4highsmalledblocklist	b4highsmalledblocklist_cycle	b4highsmalledblocklist_sample	b5highsmalledblocklist	b5highsmalledblocklist_cycle	b5highsmalledblocklist_sample	c1lowlargeedblocklist	c1lowlargeedblocklist_cycle	c1lowlargeedblocklist_sample	c2lowlargeedblocklist	c2lowlargeedblocklist_cycle	c2lowlargeedblocklist_sample	c3lowlargeedblocklist	c3lowlargeedblocklist_cycle	c3lowlargeedblocklist_sample	c4lowlargeedblocklist	c4lowlargeedblocklist_cycle	c4lowlargeedblocklist_sample	c5lowlargeedblocklist	c5lowlargeedblocklist_cycle	c5lowlargeedblocklist_sample	d1lowsmalledblocklist	d1lowsmalledblocklist_cycle	d1lowsmalledblocklist_sample	d2highlargeedblocklist	d2highlargeedblocklist_cycle	d2highlargeedblocklist_sample	d3lowsmalledblocklist	d3lowsmalledblocklist_cycle	d3lowsmalledblocklist_sample	d4lowsmalledblocklist	d4lowsmalledblocklist_cycle	d4lowsmalledblocklist_sample	d5lowsmalledblocklist	d5lowsmalledblocklist_cycle	d5lowsmalledblocklist_sample	e1officelargeblocklist	e1officelargeblocklist_cycle	e1officelargeblocklist_sample	e2officelargeblocklist	e2officelargeblocklist_cycle	e2officelargeblocklist_sample	e3officelargeblocklist	e3officelargeblocklist_cycle	e3officelargeblocklist_sample	e4officelargeblocklist	e4officelargeblocklist_cycle	e4officelargeblocklist_sample	e5officelargeblocklist	e5officelargeblocklist_cycle	e5officelargeblocklist_sample	f1officesmallblocklist	f1officesmallblocklist_cycle	f1officesmallblocklist_sample	f2officesmallblocklist	f2officesmallblocklist_cycle	f2officesmallblocklist_sample	f3officesmallblocklist	f3officesmallblocklist_cycle	f3officesmallblocklist_sample	f4officesmallblocklist	f4officesmallblocklist_cycle	f4officesmallblocklist_sample	f5officesmallblocklist	f5officesmallblocklist_cycle	f5officesmallblocklist_sample	filename	isi_duration	isi_durationerror	isi_finishtime	isi_onsetdelay	isi_onsettime	isi_onsettoonsettime	procedure_subtrial	running_subtrial	stimslide_duration	stimslide_durationerror	stimslide_finishtime	stimslide_offsetdelay	stimslide_offsettime	stimslide_onsetdelay	stimslide_onsettime	stimslide_onsettoonsettime	stimslide_resp	stimslide_rt	stimslide_rttime	onset_unrounded
4	2.5	000_R01_VB_allProc	47	1	"<?xml version=""1.0""?>\n<Clock xmlns:dt=""urn:schemas-microsoft-com:datatypes""><Description dt:dt=""string"">E-Prime Primary Realtime Clock</Description><StartTime><Timestamp dt:dt=""int"">0</Timestamp><DateUtc dt:dt=""string"">2019-08-02T17:54:54Z</DateUtc></StartTime><FrequencyChanges><FrequencyChange><Frequency dt:dt=""r8"">3020419</Frequency><Timestamp dt:dt=""r8"">287575163789</Timestamp><Current dt:dt=""r8"">0</Current><DateUtc dt:dt=""string"">2019-08-02T17:54:54Z</DateUtc></FrequencyChange></FrequencyChanges></Clock>\n"	000_R01_VB_allProc-47-1	60.022	1.0.0.185	1	-187071436	Professional	2.0.10.356	2.0.10.356	08-02-2019	8/2/2019 5:54:54 PM	13:54:54	2.0.10.252	4	0	0	631745	19	631745	3999	-999999	820312	-3	791685	0	Run3Proc	4	1	4	RunList	1	LowSmallED	8000	0	653737	0	653737	0	653737	0	D3LowSmallEDBlockProc	n/a	n/a	n/a	n/a	n/a	n/a	1.0	1.0	1.0	n/a	n/a	n/a	n/a	n/a	n/a	Run3BlockList	1	n/a	n/a	n/a	n/a	n/a	n/a	n/a	n/a	n/a	n/a	n/a	n/a	n/a	n/a	n/a	n/a	n/a	n/a	n/a	n/a	n/a	n/a	n/a	n/a	n/a	n/a	n/a	n/a	n/a	n/a	n/a	n/a	n/a	n/a	n/a	n/a	n/a	n/a	n/a	n/a	n/a	n/a	n/a	n/a	n/a	n/a	n/a	n/a	n/a	n/a	n/a	1.0	1.0	1.0	n/a	n/a	n/a	n/a	n/a	n/a	n/a	n/a	n/a	n/a	n/a	n/a	n/a	n/a	n/a	n/a	n/a	n/a	n/a	n/a	n/a	n/a	n/a	n/a	n/a	n/a	n/a	n/a	n/a	n/a	n/a	n/a	n/a	n/a	n/a	n/a	D3_01.jpg	500	0	638243	-1	638243	0	TrialProc1	D3LowSmallEDBlockList	2500	0	635744	0	635744	-1	635744	2499	c	1084	636828	4.0
7	2.5	000_R01_VB_allProc	47	1	"<?xml version=""1.0""?>\n<Clock xmlns:dt=""urn:schemas-microsoft-com:datatypes""><Description dt:dt=""string"">E-Prime Primary Realtime Clock</Description><StartTime><Timestamp dt:dt=""int"">0</Timestamp><DateUtc dt:dt=""string"">2019-08-02T17:54:54Z</DateUtc></StartTime><FrequencyChanges><FrequencyChange><Frequency dt:dt=""r8"">3020419</Frequency><Timestamp dt:dt=""r8"">287575163789</Timestamp><Current dt:dt=""r8"">0</Current><DateUtc dt:dt=""string"">2019-08-02T17:54:54Z</DateUtc></FrequencyChange></FrequencyChanges></Clock>\n"	000_R01_VB_allProc-47-1	60.022	1.0.0.185	1	-187071436	Professional	2.0.10.356	2.0.10.356	08-02-2019	8/2/2019 5:54:54 PM	13:54:54	2.0.10.252	4	0	0	631745	19	631745	3999	-999999	820312	-3	791685	0	Run3Proc	4	1	4	RunList	1	LowSmallED	8000	0	653737	0	653737	0	653737	0	D3LowSmallEDBlockProc	n/a	n/a	n/a	n/a	n/a	n/a	1.0	1.0	1.0	n/a	n/a	n/a	n/a	n/a	n/a	Run3BlockList	2	n/a	n/a	n/a	n/a	n/a	n/a	n/a	n/a	n/a	n/a	n/a	n/a	n/a	n/a	n/a	n/a	n/a	n/a	n/a	n/a	n/a	n/a	n/a	n/a	n/a	n/a	n/a	n/a	n/a	n/a	n/a	n/a	n/a	n/a	n/a	n/a	n/a	n/a	n/a	n/a	n/a	n/a	n/a	n/a	n/a	n/a	n/a	n/a	n/a	n/a	n/a	2.0	1.0	2.0	n/a	n/a	n/a	n/a	n/a	n/a	n/a	n/a	n/a	n/a	n/a	n/a	n/a	n/a	n/a	n/a	n/a	n/a	n/a	n/a	n/a	n/a	n/a	n/a	n/a	n/a	n/a	n/a	n/a	n/a	n/a	n/a	n/a	n/a	n/a	n/a	D3_02.jpg	500	0	641242	-1	641242	0	TrialProc1	D3LowSmallEDBlockList	2500	0	638743	0	638743	0	638743	2499	c	1061	639804	6.9990000000000006
10	2.5	000_R01_VB_allProc	47	1	"<?xml version=""1.0""?>\n<Clock xmlns:dt=""urn:schemas-microsoft-com:datatypes""><Description dt:dt=""string"">E-Prime Primary Realtime Clock</Description><StartTime><Timestamp dt:dt=""int"">0</Timestamp><DateUtc dt:dt=""string"">2019-08-02T17:54:54Z</DateUtc></StartTime><FrequencyChanges><FrequencyChange><Frequency dt:dt=""r8"">3020419</Frequency><Timestamp dt:dt=""r8"">287575163789</Timestamp><Current dt:dt=""r8"">0</Current><DateUtc dt:dt=""string"">2019-08-02T17:54:54Z</DateUtc></FrequencyChange></FrequencyChanges></Clock>\n"	000_R01_VB_allProc-47-1	60.022	1.0.0.185	1	-187071436	Professional	2.0.10.356	2.0.10.356	08-02-2019	8/2/2019 5:54:54 PM	13:54:54	2.0.10.252	4	0	0	631745	19	631745	3999	-999999	820312	-3	791685	0	Run3Proc	4	1	4	RunList	1	LowSmallED	8000	0	653737	0	653737	0	653737	0	D3LowSmallEDBlockProc	n/a	n/a	n/a	n/a	n/a	n/a	1.0	1.0	1.0	n/a	n/a	n/a	n/a	n/a	n/a	Run3BlockList	3	n/a	n/a	n/a	n/a	n/a	n/a	n/a	n/a	n/a	n/a	n/a	n/a	n/a	n/a	n/a	n/a	n/a	n/a	n/a	n/a	n/a	n/a	n/a	n/a	n/a	n/a	n/a	n/a	n/a	n/a	n/a	n/a	n/a	n/a	n/a	n/a	n/a	n/a	n/a	n/a	n/a	n/a	n/a	n/a	n/a	n/a	n/a	n/a	n/a	n/a	n/a	3.0	1.0	3.0	n/a	n/a	n/a	n/a	n/a	n/a	n/a	n/a	n/a	n/a	n/a	n/a	n/a	n/a	n/a	n/a	n/a	n/a	n/a	n/a	n/a	n/a	n/a	n/a	n/a	n/a	n/a	n/a	n/a	n/a	n/a	n/a	n/a	n/a	n/a	n/a	D3_03.jpg	500	0	644241	-1	644241	0	TrialProc1	D3LowSmallEDBlockList	2500	0	641742	0	641742	0	641742	2499	c	1054	642796	9.998000000000001
13	2.5	000_R01_VB_allProc	47	1	"<?xml version=""1.0""?>\n<Clock xmlns:dt=""urn:schemas-microsoft-com:datatypes""><Description dt:dt=""string"">E-Prime Primary Realtime Clock</Description><StartTime><Timestamp dt:dt=""int"">0</Timestamp><DateUtc dt:dt=""string"">2019-08-02T17:54:54Z</DateUtc></StartTime><FrequencyChanges><FrequencyChange><Frequency dt:dt=""r8"">3020419</Frequency><Timestamp dt:dt=""r8"">287575163789</Timestamp><Current dt:dt=""r8"">0</Current><DateUtc dt:dt=""string"">2019-08-02T17:54:54Z</DateUtc></FrequencyChange></FrequencyChanges></Clock>\n"	000_R01_VB_allProc-47-1	60.022	1.0.0.185	1	-187071436	Professional	2.0.10.356	2.0.10.356	08-02-2019	8/2/2019 5:54:54 PM	13:54:54	2.0.10.252	4	0	0	631745	19	631745	3999	-999999	820312	-3	791685	0	Run3Proc	4	1	4	RunList	1	LowSmallED	8000	0	653737	0	653737	0	653737	0	D3LowSmallEDBlockProc	n/a	n/a	n/a	n/a	n/a	n/a	1.0	1.0	1.0	n/a	n/a	n/a	n/a	n/a	n/a	Run3BlockList	4	n/a	n/a	n/a	n/a	n/a	n/a	n/a	n/a	n/a	n/a	n/a	n/a	n/a	n/a	n/a	n/a	n/a	n/a	n/a	n/a	n/a	n/a	n/a	n/a	n/a	n/a	n/a	n/a	n/a	n/a	n/a	n/a	n/a	n/a	n/a	n/a	n/a	n/a	n/a	n/a	n/a	n/a	n/a	n/a	n/a	n/a	n/a	n/a	n/a	n/a	n/a	4.0	1.0	4.0	n/a	n/a	n/a	n/a	n/a	n/a	n/a	n/a	n/a	n/a	n/a	n/a	n/a	n/a	n/a	n/a	n/a	n/a	n/a	n/a	n/a	n/a	n/a	n/a	n/a	n/a	n/a	n/a	n/a	n/a	n/a	n/a	n/a	n/a	n/a	n/a	D3_04.jpg	500	0	647240	0	647240	0	TrialProc1	D3LowSmallEDBlockList	2500	1	644741	1	644741	-1	644740	2500	d	2032	646772	12.996
16	2.5	000_R01_VB_allProc	47	1	"<?xml version=""1.0""?>\n<Clock xmlns:dt=""urn:schemas-microsoft-com:datatypes""><Description dt:dt=""string"">E-Prime Primary Realtime Clock</Description><StartTime><Timestamp dt:dt=""int"">0</Timestamp><DateUtc dt:dt=""string"">2019-08-02T17:54:54Z</DateUtc></StartTime><FrequencyChanges><FrequencyChange><Frequency dt:dt=""r8"">3020419</Frequency><Timestamp dt:dt=""r8"">287575163789</Timestamp><Current dt:dt=""r8"">0</Current><DateUtc dt:dt=""string"">2019-08-02T17:54:54Z</DateUtc></FrequencyChange></FrequencyChanges></Clock>\n"	000_R01_VB_allProc-47-1	60.022	1.0.0.185	1	-187071436	Professional	2.0.10.356	2.0.10.356	08-02-2019	8/2/2019 5:54:54 PM	13:54:54	2.0.10.252	4	0	0	631745	19	631745	3999	-999999	820312	-3	791685	0	Run3Proc	4	1	4	RunList	1	LowSmallED	8000	0	653737	0	653737	0	653737	0	D3LowSmallEDBlockProc	n/a	n/a	n/a	n/a	n/a	n/a	1.0	1.0	1.0	n/a	n/a	n/a	n/a	n/a	n/a	Run3BlockList	5	n/a	n/a	n/a	n/a	n/a	n/a	n/a	n/a	n/a	n/a	n/a	n/a	n/a	n/a	n/a	n/a	n/a	n/a	n/a	n/a	n/a	n/a	n/a	n/a	n/a	n/a	n/a	n/a	n/a	n/a	n/a	n/a	n/a	n/a	n/a	n/a	n/a	n/a	n/a	n/a	n/a	n/a	n/a	n/a	n/a	n/a	n/a	n/a	n/a	n/a	n/a	5.0	1.0	5.0	n/a	n/a	n/a	n/a	n/a	n/a	n/a	n/a	n/a	n/a	n/a	n/a	n/a	n/a	n/a	n/a	n/a	n/a	n/a	n/a	n/a	n/a	n/a	n/a	n/a	n/a	n/a	n/a	n/a	n/a	n/a	n/a	n/a	n/a	n/a	n/a	D3_05.jpg	500	0	650238	-1	650238	0	TrialProc1	D3LowSmallEDBlockList	2500	0	647739	0	647739	-1	647739	2499	c	1073	648812	15.995
19	2.5	000_R01_VB_allProc	47	1	"<?xml version=""1.0""?>\n<Clock xmlns:dt=""urn:schemas-microsoft-com:datatypes""><Description dt:dt=""string"">E-Prime Primary Realtime Clock</Description><StartTime><Timestamp dt:dt=""int"">0</Timestamp><DateUtc dt:dt=""string"">2019-08-02T17:54:54Z</DateUtc></StartTime><FrequencyChanges><FrequencyChange><Frequency dt:dt=""r8"">3020419</Frequency><Timestamp dt:dt=""r8"">287575163789</Timestamp><Current dt:dt=""r8"">0</Current><DateUtc dt:dt=""string"">2019-08-02T17:54:54Z</DateUtc></FrequencyChange></FrequencyChanges></Clock>\n"	000_R01_VB_allProc-47-1	60.022	1.0.0.185	1	-187071436	Professional	2.0.10.356	2.0.10.356	08-02-2019	8/2/2019 5:54:54 PM	13:54:54	2.0.10.252	4	0	0	631745	19	631745	3999	-999999	820312	-3	791685	0	Run3Proc	4	1	4	RunList	1	LowSmallED	8000	0	653737	0	653737	0	653737	0	D3LowSmallEDBlockProc	n/a	n/a	n/a	n/a	n/a	n/a	1.0	1.0	1.0	n/a	n/a	n/a	n/a	n/a	n/a	Run3BlockList	6	n/a	n/a	n/a	n/a	n/a	n/a	n/a	n/a	n/a	n/a	n/a	n/a	n/a	n/a	n/a	n/a	n/a	n/a	n/a	n/a	n/a	n/a	n/a	n/a	n/a	n/a	n/a	n/a	n/a	n/a	n/a	n/a	n/a	n/a	n/a	n/a	n/a	n/a	n/a	n/a	n/a	n/a	n/a	n/a	n/a	n/a	n/a	n/a	n/a	n/a	n/a	6.0	1.0	6.0	n/a	n/a	n/a	n/a	n/a	n/a	n/a	n/a	n/a	n/a	n/a	n/a	n/a	n/a	n/a	n/a	n/a	n/a	n/a	n/a	n/a	n/a	n/a	n/a	n/a	n/a	n/a	n/a	n/a	n/a	n/a	n/a	n/a	n/a	n/a	n/a	D3_06.jpg	500	0	653237	-1	653237	0	TrialProc1	D3LowSmallEDBlockList	2500	0	650738	0	650738	0	650738	2499	c	962	651700	18.994
30	2.5	000_R01_VB_allProc	47	1	"<?xml version=""1.0""?>\n<Clock xmlns:dt=""urn:schemas-microsoft-com:datatypes""><Description dt:dt=""string"">E-Prime Primary Realtime Clock</Description><StartTime><Timestamp dt:dt=""int"">0</Timestamp><DateUtc dt:dt=""string"">2019-08-02T17:54:54Z</DateUtc></StartTime><FrequencyChanges><FrequencyChange><Frequency dt:dt=""r8"">3020419</Frequency><Timestamp dt:dt=""r8"">287575163789</Timestamp><Current dt:dt=""r8"">0</Current><DateUtc dt:dt=""string"">2019-08-02T17:54:54Z</DateUtc></FrequencyChange></FrequencyChanges></Clock>\n"	000_R01_VB_allProc-47-1	60.022	1.0.0.185	1	-187071436	Professional	2.0.10.356	2.0.10.356	08-02-2019	8/2/2019 5:54:54 PM	13:54:54	2.0.10.252	4	0	0	631745	19	631745	3999	-999999	820312	-3	791685	0	Run3Proc	4	1	4	RunList	2	OfficeLarge	8000	0	679727	0	679727	-1	679727	0	E3OfficeLargeBlockProc	n/a	n/a	n/a	n/a	n/a	n/a	2.0	1.0	2.0	n/a	n/a	n/a	n/a	n/a	n/a	Run3BlockList	1	n/a	n/a	n/a	n/a	n/a	n/a	n/a	n/a	n/a	n/a	n/a	n/a	n/a	n/a	n/a	n/a	n/a	n/a	n/a	n/a	n/a	n/a	n/a	n/a	n/a	n/a	n/a	n/a	n/a	n/a	n/a	n/a	n/a	n/a	n/a	n/a	n/a	n/a	n/a	n/a	n/a	n/a	n/a	n/a	n/a	n/a	n/a	n/a	n/a	n/a	n/a	n/a	n/a	n/a	n/a	n/a	n/a	n/a	n/a	n/a	n/a	n/a	n/a	n/a	n/a	n/a	1.0	1.0	1.0	n/a	n/a	n/a	n/a	n/a	n/a	n/a	n/a	n/a	n/a	n/a	n/a	n/a	n/a	n/a	n/a	n/a	n/a	n/a	n/a	n/a	E3_01.jpg	500	0	664233	-1	664233	0	TrialProc1	E3OfficeLargeBlockList	2500	0	661734	0	661734	-3	661734	2499	d	1358	663092	29.99
33	2.5	000_R01_VB_allProc	47	1	"<?xml version=""1.0""?>\n<Clock xmlns:dt=""urn:schemas-microsoft-com:datatypes""><Description dt:dt=""string"">E-Prime Primary Realtime Clock</Description><StartTime><Timestamp dt:dt=""int"">0</Timestamp><DateUtc dt:dt=""string"">2019-08-02T17:54:54Z</DateUtc></StartTime><FrequencyChanges><FrequencyChange><Frequency dt:dt=""r8"">3020419</Frequency><Timestamp dt:dt=""r8"">287575163789</Timestamp><Current dt:dt=""r8"">0</Current><DateUtc dt:dt=""string"">2019-08-02T17:54:54Z</DateUtc></FrequencyChange></FrequencyChanges></Clock>\n"	000_R01_VB_allProc-47-1	60.022	1.0.0.185	1	-187071436	Professional	2.0.10.356	2.0.10.356	08-02-2019	8/2/2019 5:54:54 PM	13:54:54	2.0.10.252	4	0	0	631745	19	631745	3999	-999999	820312	-3	791685	0	Run3Proc	4	1	4	RunList	2	OfficeLarge	8000	0	679727	0	679727	-1	679727	0	E3OfficeLargeBlockProc	n/a	n/a	n/a	n/a	n/a	n/a	2.0	1.0	2.0	n/a	n/a	n/a	n/a	n/a	n/a	Run3BlockList	2	n/a	n/a	n/a	n/a	n/a	n/a	n/a	n/a	n/a	n/a	n/a	n/a	n/a	n/a	n/a	n/a	n/a	n/a	n/a	n/a	n/a	n/a	n/a	n/a	n/a	n/a	n/a	n/a	n/a	n/a	n/a	n/a	n/a	n/a	n/a	n/a	n/a	n/a	n/a	n/a	n/a	n/a	n/a	n/a	n/a	n/a	n/a	n/a	n/a	n/a	n/a	n/a	n/a	n/a	n/a	n/a	n/a	n/a	n/a	n/a	n/a	n/a	n/a	n/a	n/a	n/a	2.0	1.0	2.0	n/a	n/a	n/a	n/a	n/a	n/a	n/a	n/a	n/a	n/a	n/a	n/a	n/a	n/a	n/a	n/a	n/a	n/a	n/a	n/a	n/a	E3_02.jpg	500	0	667232	-1	667232	0	TrialProc1	E3OfficeLargeBlockList	2500	0	664733	0	664733	0	664733	2499	c	1567	666300	32.989000000000004
36	2.5	000_R01_VB_allProc	47	1	"<?xml version=""1.0""?>\n<Clock xmlns:dt=""urn:schemas-microsoft-com:datatypes""><Description dt:dt=""string"">E-Prime Primary Realtime Clock</Description><StartTime><Timestamp dt:dt=""int"">0</Timestamp><DateUtc dt:dt=""string"">2019-08-02T17:54:54Z</DateUtc></StartTime><FrequencyChanges><FrequencyChange><Frequency dt:dt=""r8"">3020419</Frequency><Timestamp dt:dt=""r8"">287575163789</Timestamp><Current dt:dt=""r8"">0</Current><DateUtc dt:dt=""string"">2019-08-02T17:54:54Z</DateUtc></FrequencyChange></FrequencyChanges></Clock>\n"	000_R01_VB_allProc-47-1	60.022	1.0.0.185	1	-187071436	Professional	2.0.10.356	2.0.10.356	08-02-2019	8/2/2019 5:54:54 PM	13:54:54	2.0.10.252	4	0	0	631745	19	631745	3999	-999999	820312	-3	791685	0	Run3Proc	4	1	4	RunList	2	OfficeLarge	8000	0	679727	0	679727	-1	679727	0	E3OfficeLargeBlockProc	n/a	n/a	n/a	n/a	n/a	n/a	2.0	1.0	2.0	n/a	n/a	n/a	n/a	n/a	n/a	Run3BlockList	3	n/a	n/a	n/a	n/a	n/a	n/a	n/a	n/a	n/a	n/a	n/a	n/a	n/a	n/a	n/a	n/a	n/a	n/a	n/a	n/a	n/a	n/a	n/a	n/a	n/a	n/a	n/a	n/a	n/a	n/a	n/a	n/a	n/a	n/a	n/a	n/a	n/a	n/a	n/a	n/a	n/a	n/a	n/a	n/a	n/a	n/a	n/a	n/a	n/a	n/a	n/a	n/a	n/a	n/a	n/a	n/a	n/a	n/a	n/a	n/a	n/a	n/a	n/a	n/a	n/a	n/a	3.0	1.0	3.0	n/a	n/a	n/a	n/a	n/a	n/a	n/a	n/a	n/a	n/a	n/a	n/a	n/a	n/a	n/a	n/a	n/a	n/a	n/a	n/a	n/a	E3_03.jpg	500	0	670231	-1	670231	0	TrialProc1	E3OfficeLargeBlockList	2500	0	667732	0	667732	0	667732	2499	d	1192	668924	35.988
39	2.5	000_R01_VB_allProc	47	1	"<?xml version=""1.0""?>\n<Clock xmlns:dt=""urn:schemas-microsoft-com:datatypes""><Description dt:dt=""string"">E-Prime Primary Realtime Clock</Description><StartTime><Timestamp dt:dt=""int"">0</Timestamp><DateUtc dt:dt=""string"">2019-08-02T17:54:54Z</DateUtc></StartTime><FrequencyChanges><FrequencyChange><Frequency dt:dt=""r8"">3020419</Frequency><Timestamp dt:dt=""r8"">287575163789</Timestamp><Current dt:dt=""r8"">0</Current><DateUtc dt:dt=""string"">2019-08-02T17:54:54Z</DateUtc></FrequencyChange></FrequencyChanges></Clock>\n"	000_R01_VB_allProc-47-1	60.022	1.0.0.185	1	-187071436	Professional	2.0.10.356	2.0.10.356	08-02-2019	8/2/2019 5:54:54 PM	13:54:54	2.0.10.252	4	0	0	631745	19	631745	3999	-999999	820312	-3	791685	0	Run3Proc	4	1	4	RunList	2	OfficeLarge	8000	0	679727	0	679727	-1	679727	0	E3OfficeLargeBlockProc	n/a	n/a	n/a	n/a	n/a	n/a	2.0	1.0	2.0	n/a	n/a	n/a	n/a	n/a	n/a	Run3BlockList	4	n/a	n/a	n/a	n/a	n/a	n/a	n/a	n/a	n/a	n/a	n/a	n/a	n/a	n/a	n/a	n/a	n/a	n/a	n/a	n/a	n/a	n/a	n/a	n/a	n/a	n/a	n/a	n/a	n/a	n/a	n/a	n/a	n/a	n/a	n/a	n/a	n/a	n/a	n/a	n/a	n/a	n/a	n/a	n/a	n/a	n/a	n/a	n/a	n/a	n/a	n/a	n/a	n/a	n/a	n/a	n/a	n/a	n/a	n/a	n/a	n/a	n/a	n/a	n/a	n/a	n/a	4.0	1.0	4.0	n/a	n/a	n/a	n/a	n/a	n/a	n/a	n/a	n/a	n/a	n/a	n/a	n/a	n/a	n/a	n/a	n/a	n/a	n/a	n/a	n/a	E3_04.jpg	500	0	673230	-1	673230	0	TrialProc1	E3OfficeLargeBlockList	2500	0	670731	0	670731	0	670731	2499	c	1009	671740	38.987
42	2.5	000_R01_VB_allProc	47	1	"<?xml version=""1.0""?>\n<Clock xmlns:dt=""urn:schemas-microsoft-com:datatypes""><Description dt:dt=""string"">E-Prime Primary Realtime Clock</Description><StartTime><Timestamp dt:dt=""int"">0</Timestamp><DateUtc dt:dt=""string"">2019-08-02T17:54:54Z</DateUtc></StartTime><FrequencyChanges><FrequencyChange><Frequency dt:dt=""r8"">3020419</Frequency><Timestamp dt:dt=""r8"">287575163789</Timestamp><Current dt:dt=""r8"">0</Current><DateUtc dt:dt=""string"">2019-08-02T17:54:54Z</DateUtc></FrequencyChange></FrequencyChanges></Clock>\n"	000_R01_VB_allProc-47-1	60.022	1.0.0.185	1	-187071436	Professional	2.0.10.356	2.0.10.356	08-02-2019	8/2/2019 5:54:54 PM	13:54:54	2.0.10.252	4	0	0	631745	19	631745	3999	-999999	820312	-3	791685	0	Run3Proc	4	1	4	RunList	2	OfficeLarge	8000	0	679727	0	679727	-1	679727	0	E3OfficeLargeBlockProc	n/a	n/a	n/a	n/a	n/a	n/a	2.0	1.0	2.0	n/a	n/a	n/a	n/a	n/a	n/a	Run3BlockList	5	n/a	n/a	n/a	n/a	n/a	n/a	n/a	n/a	n/a	n/a	n/a	n/a	n/a	n/a	n/a	n/a	n/a	n/a	n/a	n/a	n/a	n/a	n/a	n/a	n/a	n/a	n/a	n/a	n/a	n/a	n/a	n/a	n/a	n/a	n/a	n/a	n/a	n/a	n/a	n/a	n/a	n/a	n/a	n/a	n/a	n/a	n/a	n/a	n/a	n/a	n/a	n/a	n/a	n/a	n/a	n/a	n/a	n/a	n/a	n/a	n/a	n/a	n/a	n/a	n/a	n/a	5.0	1.0	5.0	n/a	n/a	n/a	n/a	n/a	n/a	n/a	n/a	n/a	n/a	n/a	n/a	n/a	n/a	n/a	n/a	n/a	n/a	n/a	n/a	n/a	E3_05.jpg	500	0	676229	-1	676229	0	TrialProc1	E3OfficeLargeBlockList	2500	0	673730	0	673730	0	673730	2499	c	946	674676	41.986
45	2.5	000_R01_VB_allProc	47	1	"<?xml version=""1.0""?>\n<Clock xmlns:dt=""urn:schemas-microsoft-com:datatypes""><Description dt:dt=""string"">E-Prime Primary Realtime Clock</Description><StartTime><Timestamp dt:dt=""int"">0</Timestamp><DateUtc dt:dt=""string"">2019-08-02T17:54:54Z</DateUtc></StartTime><FrequencyChanges><FrequencyChange><Frequency dt:dt=""r8"">3020419</Frequency><Timestamp dt:dt=""r8"">287575163789</Timestamp><Current dt:dt=""r8"">0</Current><DateUtc dt:dt=""string"">2019-08-02T17:54:54Z</DateUtc></FrequencyChange></FrequencyChanges></Clock>\n"	000_R01_VB_allProc-47-1	60.022	1.0.0.185	1	-187071436	Professional	2.0.10.356	2.0.10.356	08-02-2019	8/2/2019 5:54:54 PM	13:54:54	2.0.10.252	4	0	0	631745	19	631745	3999	-999999	820312	-3	791685	0	Run3Proc	4	1	4	RunList	2	OfficeLarge	8000	0	679727	0	679727	-1	679727	0	E3OfficeLargeBlockProc	n/a	n/a	n/a	n/a	n/a	n/a	2.0	1.0	2.0	n/a	n/a	n/a	n/a	n/a	n/a	Run3BlockList	6	n/a	n/a	n/a	n/a	n/a	n/a	n/a	n/a	n/a	n/a	n/a	n/a	n/a	n/a	n/a	n/a	n/a	n/a	n/a	n/a	n/a	n/a	n/a	n/a	n/a	n/a	n/a	n/a	n/a	n/a	n/a	n/a	n/a	n/a	n/a	n/a	n/a	n/a	n/a	n/a	n/a	n/a	n/a	n/a	n/a	n/a	n/a	n/a	n/a	n/a	n/a	n/a	n/a	n/a	n/a	n/a	n/a	n/a	n/a	n/a	n/a	n/a	n/a	n/a	n/a	n/a	6.0	1.0	6.0	n/a	n/a	n/a	n/a	n/a	n/a	n/a	n/a	n/a	n/a	n/a	n/a	n/a	n/a	n/a	n/a	n/a	n/a	n/a	n/a	n/a	E3_06.jpg	500	0	679228	0	679228	0	TrialProc1	E3OfficeLargeBlockList	2500	1	676729	1	676729	-1	676728	2500	c	1107	677835	44.984
56	2.5	000_R01_VB_allProc	47	1	"<?xml version=""1.0""?>\n<Clock xmlns:dt=""urn:schemas-microsoft-com:datatypes""><Description dt:dt=""string"">E-Prime Primary Realtime Clock</Description><StartTime><Timestamp dt:dt=""int"">0</Timestamp><DateUtc dt:dt=""string"">2019-08-02T17:54:54Z</DateUtc></StartTime><FrequencyChanges><FrequencyChange><Frequency dt:dt=""r8"">3020419</Frequency><Timestamp dt:dt=""r8"">287575163789</Timestamp><Current dt:dt=""r8"">0</Current><DateUtc dt:dt=""string"">2019-08-02T17:54:54Z</DateUtc></FrequencyChange></FrequencyChanges></Clock>\n"	000_R01_VB_allProc-47-1	60.022	1.0.0.185	1	-187071436	Professional	2.0.10.356	2.0.10.356	08-02-2019	8/2/2019 5:54:54 PM	13:54:54	2.0.10.252	4	0	0	631745	19	631745	3999	-999999	820312	-3	791685	0	Run3Proc	4	1	4	RunList	3	HighSmallED	8000	0	705718	0	705718	0	705718	0	B3HighSmallEDBlockProc	n/a	n/a	n/a	n/a	n/a	n/a	3.0	1.0	3.0	n/a	n/a	n/a	n/a	n/a	n/a	Run3BlockList	1	n/a	n/a	n/a	n/a	n/a	n/a	n/a	n/a	n/a	n/a	n/a	n/a	n/a	n/a	n/a	n/a	n/a	n/a	n/a	n/a	n/a	1.0	1.0	1.0	n/a	n/a	n/a	n/a	n/a	n/a	n/a	n/a	n/a	n/a	n/a	n/a	n/a	n/a	n/a	n/a	n/a	n/a	n/a	n/a	n/a	n/a	n/a	n/a	n/a	n/a	n/a	n/a	n/a	n/a	n/a	n/a	n/a	n/a	n/a	n/a	n/a	n/a	n/a	n/a	n/a	n/a	n/a	n/a	n/a	n/a	n/a	n/a	n/a	n/a	n/a	n/a	n/a	n/a	n/a	n/a	n/a	n/a	n/a	n/a	n/a	n/a	n/a	n/a	n/a	n/a	B3_01.jpg	500	0	690223	-1	690223	0	TrialProc1	B3HighSmallEDBlockList	2500	0	687724	0	687724	-3	687724	2499	d	1527	689251	55.98
59	2.5	000_R01_VB_allProc	47	1	"<?xml version=""1.0""?>\n<Clock xmlns:dt=""urn:schemas-microsoft-com:datatypes""><Description dt:dt=""string"">E-Prime Primary Realtime Clock</Description><StartTime><Timestamp dt:dt=""int"">0</Timestamp><DateUtc dt:dt=""string"">2019-08-02T17:54:54Z</DateUtc></StartTime><FrequencyChanges><FrequencyChange><Frequency dt:dt=""r8"">3020419</Frequency><Timestamp dt:dt=""r8"">287575163789</Timestamp><Current dt:dt=""r8"">0</Current><DateUtc dt:dt=""string"">2019-08-02T17:54:54Z</DateUtc></FrequencyChange></FrequencyChanges></Clock>\n"	000_R01_VB_allProc-47-1	60.022	1.0.0.185	1	-187071436	Professional	2.0.10.356	2.0.10.356	08-02-2019	8/2/2019 5:54:54 PM	13:54:54	2.0.10.252	4	0	0	631745	19	631745	3999	-999999	820312	-3	791685	0	Run3Proc	4	1	4	RunList	3	HighSmallED	8000	0	705718	0	705718	0	705718	0	B3HighSmallEDBlockProc	n/a	n/a	n/a	n/a	n/a	n/a	3.0	1.0	3.0	n/a	n/a	n/a	n/a	n/a	n/a	Run3BlockList	2	n/a	n/a	n/a	n/a	n/a	n/a	n/a	n/a	n/a	n/a	n/a	n/a	n/a	n/a	n/a	n/a	n/a	n/a	n/a	n/a	n/a	2.0	1.0	2.0	n/a	n/a	n/a	n/a	n/a	n/a	n/a	n/a	n/a	n/a	n/a	n/a	n/a	n/a	n/a	n/a	n/a	n/a	n/a	n/a	n/a	n/a	n/a	n/a	n/a	n/a	n/a	n/a	n/a	n/a	n/a	n/a	n/a	n/a	n/a	n/a	n/a	n/a	n/a	n/a	n/a	n/a	n/a	n/a	n/a	n/a	n/a	n/a	n/a	n/a	n/a	n/a	n/a	n/a	n/a	n/a	n/a	n/a	n/a	n/a	n/a	n/a	n/a	n/a	n/a	n/a	B3_02.jpg	500	0	693222	-1	693222	0	TrialProc1	B3HighSmallEDBlockList	2500	0	690723	0	690723	0	690723	2499	c	1480	692203	58.979
62	2.5	000_R01_VB_allProc	47	1	"<?xml version=""1.0""?>\n<Clock xmlns:dt=""urn:schemas-microsoft-com:datatypes""><Description dt:dt=""string"">E-Prime Primary Realtime Clock</Description><StartTime><Timestamp dt:dt=""int"">0</Timestamp><DateUtc dt:dt=""string"">2019-08-02T17:54:54Z</DateUtc></StartTime><FrequencyChanges><FrequencyChange><Frequency dt:dt=""r8"">3020419</Frequency><Timestamp dt:dt=""r8"">287575163789</Timestamp><Current dt:dt=""r8"">0</Current><DateUtc dt:dt=""string"">2019-08-02T17:54:54Z</DateUtc></FrequencyChange></FrequencyChanges></Clock>\n"	000_R01_VB_allProc-47-1	60.022	1.0.0.185	1	-187071436	Professional	2.0.10.356	2.0.10.356	08-02-2019	8/2/2019 5:54:54 PM	13:54:54	2.0.10.252	4	0	0	631745	19	631745	3999	-999999	820312	-3	791685	0	Run3Proc	4	1	4	RunList	3	HighSmallED	8000	0	705718	0	705718	0	705718	0	B3HighSmallEDBlockProc	n/a	n/a	n/a	n/a	n/a	n/a	3.0	1.0	3.0	n/a	n/a	n/a	n/a	n/a	n/a	Run3BlockList	3	n/a	n/a	n/a	n/a	n/a	n/a	n/a	n/a	n/a	n/a	n/a	n/a	n/a	n/a	n/a	n/a	n/a	n/a	n/a	n/a	n/a	3.0	1.0	3.0	n/a	n/a	n/a	n/a	n/a	n/a	n/a	n/a	n/a	n/a	n/a	n/a	n/a	n/a	n/a	n/a	n/a	n/a	n/a	n/a	n/a	n/a	n/a	n/a	n/a	n/a	n/a	n/a	n/a	n/a	n/a	n/a	n/a	n/a	n/a	n/a	n/a	n/a	n/a	n/a	n/a	n/a	n/a	n/a	n/a	n/a	n/a	n/a	n/a	n/a	n/a	n/a	n/a	n/a	n/a	n/a	n/a	n/a	n/a	n/a	n/a	n/a	n/a	n/a	n/a	n/a	B3_03.jpg	500	0	696221	-1	696221	0	TrialProc1	B3HighSmallEDBlockList	2500	0	693722	0	693722	0	693722	2499	c	961	694683	61.978
65	2.5	000_R01_VB_allProc	47	1	"<?xml version=""1.0""?>\n<Clock xmlns:dt=""urn:schemas-microsoft-com:datatypes""><Description dt:dt=""string"">E-Prime Primary Realtime Clock</Description><StartTime><Timestamp dt:dt=""int"">0</Timestamp><DateUtc dt:dt=""string"">2019-08-02T17:54:54Z</DateUtc></StartTime><FrequencyChanges><FrequencyChange><Frequency dt:dt=""r8"">3020419</Frequency><Timestamp dt:dt=""r8"">287575163789</Timestamp><Current dt:dt=""r8"">0</Current><DateUtc dt:dt=""string"">2019-08-02T17:54:54Z</DateUtc></FrequencyChange></FrequencyChanges></Clock>\n"	000_R01_VB_allProc-47-1	60.022	1.0.0.185	1	-187071436	Professional	2.0.10.356	2.0.10.356	08-02-2019	8/2/2019 5:54:54 PM	13:54:54	2.0.10.252	4	0	0	631745	19	631745	3999	-999999	820312	-3	791685	0	Run3Proc	4	1	4	RunList	3	HighSmallED	8000	0	705718	0	705718	0	705718	0	B3HighSmallEDBlockProc	n/a	n/a	n/a	n/a	n/a	n/a	3.0	1.0	3.0	n/a	n/a	n/a	n/a	n/a	n/a	Run3BlockList	4	n/a	n/a	n/a	n/a	n/a	n/a	n/a	n/a	n/a	n/a	n/a	n/a	n/a	n/a	n/a	n/a	n/a	n/a	n/a	n/a	n/a	4.0	1.0	4.0	n/a	n/a	n/a	n/a	n/a	n/a	n/a	n/a	n/a	n/a	n/a	n/a	n/a	n/a	n/a	n/a	n/a	n/a	n/a	n/a	n/a	n/a	n/a	n/a	n/a	n/a	n/a	n/a	n/a	n/a	n/a	n/a	n/a	n/a	n/a	n/a	n/a	n/a	n/a	n/a	n/a	n/a	n/a	n/a	n/a	n/a	n/a	n/a	n/a	n/a	n/a	n/a	n/a	n/a	n/a	n/a	n/a	n/a	n/a	n/a	n/a	n/a	n/a	n/a	n/a	n/a	B3_04.jpg	500	0	699220	-1	699220	0	TrialProc1	B3HighSmallEDBlockList	2500	0	696721	0	696721	0	696721	2499	d	738	697459	64.977
68	2.5	000_R01_VB_allProc	47	1	"<?xml version=""1.0""?>\n<Clock xmlns:dt=""urn:schemas-microsoft-com:datatypes""><Description dt:dt=""string"">E-Prime Primary Realtime Clock</Description><StartTime><Timestamp dt:dt=""int"">0</Timestamp><DateUtc dt:dt=""string"">2019-08-02T17:54:54Z</DateUtc></StartTime><FrequencyChanges><FrequencyChange><Frequency dt:dt=""r8"">3020419</Frequency><Timestamp dt:dt=""r8"">287575163789</Timestamp><Current dt:dt=""r8"">0</Current><DateUtc dt:dt=""string"">2019-08-02T17:54:54Z</DateUtc></FrequencyChange></FrequencyChanges></Clock>\n"	000_R01_VB_allProc-47-1	60.022	1.0.0.185	1	-187071436	Professional	2.0.10.356	2.0.10.356	08-02-2019	8/2/2019 5:54:54 PM	13:54:54	2.0.10.252	4	0	0	631745	19	631745	3999	-999999	820312	-3	791685	0	Run3Proc	4	1	4	RunList	3	HighSmallED	8000	0	705718	0	705718	0	705718	0	B3HighSmallEDBlockProc	n/a	n/a	n/a	n/a	n/a	n/a	3.0	1.0	3.0	n/a	n/a	n/a	n/a	n/a	n/a	Run3BlockList	5	n/a	n/a	n/a	n/a	n/a	n/a	n/a	n/a	n/a	n/a	n/a	n/a	n/a	n/a	n/a	n/a	n/a	n/a	n/a	n/a	n/a	5.0	1.0	5.0	n/a	n/a	n/a	n/a	n/a	n/a	n/a	n/a	n/a	n/a	n/a	n/a	n/a	n/a	n/a	n/a	n/a	n/a	n/a	n/a	n/a	n/a	n/a	n/a	n/a	n/a	n/a	n/a	n/a	n/a	n/a	n/a	n/a	n/a	n/a	n/a	n/a	n/a	n/a	n/a	n/a	n/a	n/a	n/a	n/a	n/a	n/a	n/a	n/a	n/a	n/a	n/a	n/a	n/a	n/a	n/a	n/a	n/a	n/a	n/a	n/a	n/a	n/a	n/a	n/a	n/a	B3_05.jpg	500	0	702219	-1	702219	0	TrialProc1	B3HighSmallEDBlockList	2500	0	699720	0	699720	0	699720	2499	d	931	700651	67.976
71	2.5	000_R01_VB_allProc	47	1	"<?xml version=""1.0""?>\n<Clock xmlns:dt=""urn:schemas-microsoft-com:datatypes""><Description dt:dt=""string"">E-Prime Primary Realtime Clock</Description><StartTime><Timestamp dt:dt=""int"">0</Timestamp><DateUtc dt:dt=""string"">2019-08-02T17:54:54Z</DateUtc></StartTime><FrequencyChanges><FrequencyChange><Frequency dt:dt=""r8"">3020419</Frequency><Timestamp dt:dt=""r8"">287575163789</Timestamp><Current dt:dt=""r8"">0</Current><DateUtc dt:dt=""string"">2019-08-02T17:54:54Z</DateUtc></FrequencyChange></FrequencyChanges></Clock>\n"	000_R01_VB_allProc-47-1	60.022	1.0.0.185	1	-187071436	Professional	2.0.10.356	2.0.10.356	08-02-2019	8/2/2019 5:54:54 PM	13:54:54	2.0.10.252	4	0	0	631745	19	631745	3999	-999999	820312	-3	791685	0	Run3Proc	4	1	4	RunList	3	HighSmallED	8000	0	705718	0	705718	0	705718	0	B3HighSmallEDBlockProc	n/a	n/a	n/a	n/a	n/a	n/a	3.0	1.0	3.0	n/a	n/a	n/a	n/a	n/a	n/a	Run3BlockList	6	n/a	n/a	n/a	n/a	n/a	n/a	n/a	n/a	n/a	n/a	n/a	n/a	n/a	n/a	n/a	n/a	n/a	n/a	n/a	n/a	n/a	6.0	1.0	6.0	n/a	n/a	n/a	n/a	n/a	n/a	n/a	n/a	n/a	n/a	n/a	n/a	n/a	n/a	n/a	n/a	n/a	n/a	n/a	n/a	n/a	n/a	n/a	n/a	n/a	n/a	n/a	n/a	n/a	n/a	n/a	n/a	n/a	n/a	n/a	n/a	n/a	n/a	n/a	n/a	n/a	n/a	n/a	n/a	n/a	n/a	n/a	n/a	n/a	n/a	n/a	n/a	n/a	n/a	n/a	n/a	n/a	n/a	n/a	n/a	n/a	n/a	n/a	n/a	n/a	n/a	B3_06.jpg	500	0	705218	-1	705218	0	TrialProc1	B3HighSmallEDBlockList	2500	0	702719	0	702719	0	702719	2499	d	1788	704507	70.975
82	2.5	000_R01_VB_allProc	47	1	"<?xml version=""1.0""?>\n<Clock xmlns:dt=""urn:schemas-microsoft-com:datatypes""><Description dt:dt=""string"">E-Prime Primary Realtime Clock</Description><StartTime><Timestamp dt:dt=""int"">0</Timestamp><DateUtc dt:dt=""string"">2019-08-02T17:54:54Z</DateUtc></StartTime><FrequencyChanges><FrequencyChange><Frequency dt:dt=""r8"">3020419</Frequency><Timestamp dt:dt=""r8"">287575163789</Timestamp><Current dt:dt=""r8"">0</Current><DateUtc dt:dt=""string"">2019-08-02T17:54:54Z</DateUtc></FrequencyChange></FrequencyChanges></Clock>\n"	000_R01_VB_allProc-47-1	60.022	1.0.0.185	1	-187071436	Professional	2.0.10.356	2.0.10.356	08-02-2019	8/2/2019 5:54:54 PM	13:54:54	2.0.10.252	4	0	0	631745	19	631745	3999	-999999	820312	-3	791685	0	Run3Proc	4	1	4	RunList	4	OfficeSmall	8000	0	731708	0	731708	0	731708	0	F3OfficeSmallBlockProc	n/a	n/a	n/a	n/a	n/a	n/a	4.0	1.0	4.0	n/a	n/a	n/a	n/a	n/a	n/a	Run3BlockList	1	n/a	n/a	n/a	n/a	n/a	n/a	n/a	n/a	n/a	n/a	n/a	n/a	n/a	n/a	n/a	n/a	n/a	n/a	n/a	n/a	n/a	n/a	n/a	n/a	n/a	n/a	n/a	n/a	n/a	n/a	n/a	n/a	n/a	n/a	n/a	n/a	n/a	n/a	n/a	n/a	n/a	n/a	n/a	n/a	n/a	n/a	n/a	n/a	n/a	n/a	n/a	n/a	n/a	n/a	n/a	n/a	n/a	n/a	n/a	n/a	n/a	n/a	n/a	n/a	n/a	n/a	n/a	n/a	n/a	n/a	n/a	n/a	n/a	n/a	n/a	n/a	n/a	n/a	n/a	n/a	n/a	1.0	1.0	1.0	n/a	n/a	n/a	n/a	n/a	n/a	F3_01.jpg	500	0	716214	-1	716214	0	TrialProc1	F3OfficeSmallBlockList	2500	0	713715	0	713715	-3	713715	2499	c	1696	715411	81.971
85	2.5	000_R01_VB_allProc	47	1	"<?xml version=""1.0""?>\n<Clock xmlns:dt=""urn:schemas-microsoft-com:datatypes""><Description dt:dt=""string"">E-Prime Primary Realtime Clock</Description><StartTime><Timestamp dt:dt=""int"">0</Timestamp><DateUtc dt:dt=""string"">2019-08-02T17:54:54Z</DateUtc></StartTime><FrequencyChanges><FrequencyChange><Frequency dt:dt=""r8"">3020419</Frequency><Timestamp dt:dt=""r8"">287575163789</Timestamp><Current dt:dt=""r8"">0</Current><DateUtc dt:dt=""string"">2019-08-02T17:54:54Z</DateUtc></FrequencyChange></FrequencyChanges></Clock>\n"	000_R01_VB_allProc-47-1	60.022	1.0.0.185	1	-187071436	Professional	2.0.10.356	2.0.10.356	08-02-2019	8/2/2019 5:54:54 PM	13:54:54	2.0.10.252	4	0	0	631745	19	631745	3999	-999999	820312	-3	791685	0	Run3Proc	4	1	4	RunList	4	OfficeSmall	8000	0	731708	0	731708	0	731708	0	F3OfficeSmallBlockProc	n/a	n/a	n/a	n/a	n/a	n/a	4.0	1.0	4.0	n/a	n/a	n/a	n/a	n/a	n/a	Run3BlockList	2	n/a	n/a	n/a	n/a	n/a	n/a	n/a	n/a	n/a	n/a	n/a	n/a	n/a	n/a	n/a	n/a	n/a	n/a	n/a	n/a	n/a	n/a	n/a	n/a	n/a	n/a	n/a	n/a	n/a	n/a	n/a	n/a	n/a	n/a	n/a	n/a	n/a	n/a	n/a	n/a	n/a	n/a	n/a	n/a	n/a	n/a	n/a	n/a	n/a	n/a	n/a	n/a	n/a	n/a	n/a	n/a	n/a	n/a	n/a	n/a	n/a	n/a	n/a	n/a	n/a	n/a	n/a	n/a	n/a	n/a	n/a	n/a	n/a	n/a	n/a	n/a	n/a	n/a	n/a	n/a	n/a	2.0	1.0	2.0	n/a	n/a	n/a	n/a	n/a	n/a	F3_02.jpg	500	1	719213	-1	719212	0	TrialProc1	F3OfficeSmallBlockList	2500	1	716714	1	716714	-1	716713	2499	c	1058	717771	84.969
88	2.5	000_R01_VB_allProc	47	1	"<?xml version=""1.0""?>\n<Clock xmlns:dt=""urn:schemas-microsoft-com:datatypes""><Description dt:dt=""string"">E-Prime Primary Realtime Clock</Description><StartTime><Timestamp dt:dt=""int"">0</Timestamp><DateUtc dt:dt=""string"">2019-08-02T17:54:54Z</DateUtc></StartTime><FrequencyChanges><FrequencyChange><Frequency dt:dt=""r8"">3020419</Frequency><Timestamp dt:dt=""r8"">287575163789</Timestamp><Current dt:dt=""r8"">0</Current><DateUtc dt:dt=""string"">2019-08-02T17:54:54Z</DateUtc></FrequencyChange></FrequencyChanges></Clock>\n"	000_R01_VB_allProc-47-1	60.022	1.0.0.185	1	-187071436	Professional	2.0.10.356	2.0.10.356	08-02-2019	8/2/2019 5:54:54 PM	13:54:54	2.0.10.252	4	0	0	631745	19	631745	3999	-999999	820312	-3	791685	0	Run3Proc	4	1	4	RunList	4	OfficeSmall	8000	0	731708	0	731708	0	731708	0	F3OfficeSmallBlockProc	n/a	n/a	n/a	n/a	n/a	n/a	4.0	1.0	4.0	n/a	n/a	n/a	n/a	n/a	n/a	Run3BlockList	3	n/a	n/a	n/a	n/a	n/a	n/a	n/a	n/a	n/a	n/a	n/a	n/a	n/a	n/a	n/a	n/a	n/a	n/a	n/a	n/a	n/a	n/a	n/a	n/a	n/a	n/a	n/a	n/a	n/a	n/a	n/a	n/a	n/a	n/a	n/a	n/a	n/a	n/a	n/a	n/a	n/a	n/a	n/a	n/a	n/a	n/a	n/a	n/a	n/a	n/a	n/a	n/a	n/a	n/a	n/a	n/a	n/a	n/a	n/a	n/a	n/a	n/a	n/a	n/a	n/a	n/a	n/a	n/a	n/a	n/a	n/a	n/a	n/a	n/a	n/a	n/a	n/a	n/a	n/a	n/a	n/a	3.0	1.0	3.0	n/a	n/a	n/a	n/a	n/a	n/a	F3_03.jpg	500	0	722211	-1	722211	0	TrialProc1	F3OfficeSmallBlockList	2500	0	719712	0	719712	0	719712	2499	c	1539	721251	87.968
91	2.5	000_R01_VB_allProc	47	1	"<?xml version=""1.0""?>\n<Clock xmlns:dt=""urn:schemas-microsoft-com:datatypes""><Description dt:dt=""string"">E-Prime Primary Realtime Clock</Description><StartTime><Timestamp dt:dt=""int"">0</Timestamp><DateUtc dt:dt=""string"">2019-08-02T17:54:54Z</DateUtc></StartTime><FrequencyChanges><FrequencyChange><Frequency dt:dt=""r8"">3020419</Frequency><Timestamp dt:dt=""r8"">287575163789</Timestamp><Current dt:dt=""r8"">0</Current><DateUtc dt:dt=""string"">2019-08-02T17:54:54Z</DateUtc></FrequencyChange></FrequencyChanges></Clock>\n"	000_R01_VB_allProc-47-1	60.022	1.0.0.185	1	-187071436	Professional	2.0.10.356	2.0.10.356	08-02-2019	8/2/2019 5:54:54 PM	13:54:54	2.0.10.252	4	0	0	631745	19	631745	3999	-999999	820312	-3	791685	0	Run3Proc	4	1	4	RunList	4	OfficeSmall	8000	0	731708	0	731708	0	731708	0	F3OfficeSmallBlockProc	n/a	n/a	n/a	n/a	n/a	n/a	4.0	1.0	4.0	n/a	n/a	n/a	n/a	n/a	n/a	Run3BlockList	4	n/a	n/a	n/a	n/a	n/a	n/a	n/a	n/a	n/a	n/a	n/a	n/a	n/a	n/a	n/a	n/a	n/a	n/a	n/a	n/a	n/a	n/a	n/a	n/a	n/a	n/a	n/a	n/a	n/a	n/a	n/a	n/a	n/a	n/a	n/a	n/a	n/a	n/a	n/a	n/a	n/a	n/a	n/a	n/a	n/a	n/a	n/a	n/a	n/a	n/a	n/a	n/a	n/a	n/a	n/a	n/a	n/a	n/a	n/a	n/a	n/a	n/a	n/a	n/a	n/a	n/a	n/a	n/a	n/a	n/a	n/a	n/a	n/a	n/a	n/a	n/a	n/a	n/a	n/a	n/a	n/a	4.0	1.0	4.0	n/a	n/a	n/a	n/a	n/a	n/a	F3_04.jpg	500	0	725210	-1	725210	0	TrialProc1	F3OfficeSmallBlockList	2500	0	722711	0	722711	0	722711	2499	c	1483	724194	90.967
94	2.5	000_R01_VB_allProc	47	1	"<?xml version=""1.0""?>\n<Clock xmlns:dt=""urn:schemas-microsoft-com:datatypes""><Description dt:dt=""string"">E-Prime Primary Realtime Clock</Description><StartTime><Timestamp dt:dt=""int"">0</Timestamp><DateUtc dt:dt=""string"">2019-08-02T17:54:54Z</DateUtc></StartTime><FrequencyChanges><FrequencyChange><Frequency dt:dt=""r8"">3020419</Frequency><Timestamp dt:dt=""r8"">287575163789</Timestamp><Current dt:dt=""r8"">0</Current><DateUtc dt:dt=""string"">2019-08-02T17:54:54Z</DateUtc></FrequencyChange></FrequencyChanges></Clock>\n"	000_R01_VB_allProc-47-1	60.022	1.0.0.185	1	-187071436	Professional	2.0.10.356	2.0.10.356	08-02-2019	8/2/2019 5:54:54 PM	13:54:54	2.0.10.252	4	0	0	631745	19	631745	3999	-999999	820312	-3	791685	0	Run3Proc	4	1	4	RunList	4	OfficeSmall	8000	0	731708	0	731708	0	731708	0	F3OfficeSmallBlockProc	n/a	n/a	n/a	n/a	n/a	n/a	4.0	1.0	4.0	n/a	n/a	n/a	n/a	n/a	n/a	Run3BlockList	5	n/a	n/a	n/a	n/a	n/a	n/a	n/a	n/a	n/a	n/a	n/a	n/a	n/a	n/a	n/a	n/a	n/a	n/a	n/a	n/a	n/a	n/a	n/a	n/a	n/a	n/a	n/a	n/a	n/a	n/a	n/a	n/a	n/a	n/a	n/a	n/a	n/a	n/a	n/a	n/a	n/a	n/a	n/a	n/a	n/a	n/a	n/a	n/a	n/a	n/a	n/a	n/a	n/a	n/a	n/a	n/a	n/a	n/a	n/a	n/a	n/a	n/a	n/a	n/a	n/a	n/a	n/a	n/a	n/a	n/a	n/a	n/a	n/a	n/a	n/a	n/a	n/a	n/a	n/a	n/a	n/a	5.0	1.0	5.0	n/a	n/a	n/a	n/a	n/a	n/a	F3_05.jpg	500	0	728209	-1	728209	0	TrialProc1	F3OfficeSmallBlockList	2500	0	725710	0	725710	0	725710	2499	c	1532	727242	93.966
97	2.5	000_R01_VB_allProc	47	1	"<?xml version=""1.0""?>\n<Clock xmlns:dt=""urn:schemas-microsoft-com:datatypes""><Description dt:dt=""string"">E-Prime Primary Realtime Clock</Description><StartTime><Timestamp dt:dt=""int"">0</Timestamp><DateUtc dt:dt=""string"">2019-08-02T17:54:54Z</DateUtc></StartTime><FrequencyChanges><FrequencyChange><Frequency dt:dt=""r8"">3020419</Frequency><Timestamp dt:dt=""r8"">287575163789</Timestamp><Current dt:dt=""r8"">0</Current><DateUtc dt:dt=""string"">2019-08-02T17:54:54Z</DateUtc></FrequencyChange></FrequencyChanges></Clock>\n"	000_R01_VB_allProc-47-1	60.022	1.0.0.185	1	-187071436	Professional	2.0.10.356	2.0.10.356	08-02-2019	8/2/2019 5:54:54 PM	13:54:54	2.0.10.252	4	0	0	631745	19	631745	3999	-999999	820312	-3	791685	0	Run3Proc	4	1	4	RunList	4	OfficeSmall	8000	0	731708	0	731708	0	731708	0	F3OfficeSmallBlockProc	n/a	n/a	n/a	n/a	n/a	n/a	4.0	1.0	4.0	n/a	n/a	n/a	n/a	n/a	n/a	Run3BlockList	6	n/a	n/a	n/a	n/a	n/a	n/a	n/a	n/a	n/a	n/a	n/a	n/a	n/a	n/a	n/a	n/a	n/a	n/a	n/a	n/a	n/a	n/a	n/a	n/a	n/a	n/a	n/a	n/a	n/a	n/a	n/a	n/a	n/a	n/a	n/a	n/a	n/a	n/a	n/a	n/a	n/a	n/a	n/a	n/a	n/a	n/a	n/a	n/a	n/a	n/a	n/a	n/a	n/a	n/a	n/a	n/a	n/a	n/a	n/a	n/a	n/a	n/a	n/a	n/a	n/a	n/a	n/a	n/a	n/a	n/a	n/a	n/a	n/a	n/a	n/a	n/a	n/a	n/a	n/a	n/a	n/a	6.0	1.0	6.0	n/a	n/a	n/a	n/a	n/a	n/a	F3_06.jpg	500	0	731208	-1	731208	0	TrialProc1	F3OfficeSmallBlockList	2500	0	728709	0	728709	0	728709	2499	c	1541	730250	96.965
108	2.5	000_R01_VB_allProc	47	1	"<?xml version=""1.0""?>\n<Clock xmlns:dt=""urn:schemas-microsoft-com:datatypes""><Description dt:dt=""string"">E-Prime Primary Realtime Clock</Description><StartTime><Timestamp dt:dt=""int"">0</Timestamp><DateUtc dt:dt=""string"">2019-08-02T17:54:54Z</DateUtc></StartTime><FrequencyChanges><FrequencyChange><Frequency dt:dt=""r8"">3020419</Frequency><Timestamp dt:dt=""r8"">287575163789</Timestamp><Current dt:dt=""r8"">0</Current><DateUtc dt:dt=""string"">2019-08-02T17:54:54Z</DateUtc></FrequencyChange></FrequencyChanges></Clock>\n"	000_R01_VB_allProc-47-1	60.022	1.0.0.185	1	-187071436	Professional	2.0.10.356	2.0.10.356	08-02-2019	8/2/2019 5:54:54 PM	13:54:54	2.0.10.252	4	0	0	631745	19	631745	3999	-999999	820312	-3	791685	0	Run3Proc	4	1	4	RunList	5	HighLargeED	8000	0	757698	0	757698	0	757698	0	A3HighLargeEDBlockProc	n/a	n/a	n/a	n/a	n/a	n/a	5.0	1.0	5.0	n/a	n/a	n/a	n/a	n/a	n/a	Run3BlockList	1	n/a	n/a	n/a	n/a	n/a	n/a	1.0	1.0	1.0	n/a	n/a	n/a	n/a	n/a	n/a	n/a	n/a	n/a	n/a	n/a	n/a	n/a	n/a	n/a	n/a	n/a	n/a	n/a	n/a	n/a	n/a	n/a	n/a	n/a	n/a	n/a	n/a	n/a	n/a	n/a	n/a	n/a	n/a	n/a	n/a	n/a	n/a	n/a	n/a	n/a	n/a	n/a	n/a	n/a	n/a	n/a	n/a	n/a	n/a	n/a	n/a	n/a	n/a	n/a	n/a	n/a	n/a	n/a	n/a	n/a	n/a	n/a	n/a	n/a	n/a	n/a	n/a	n/a	n/a	n/a	n/a	n/a	n/a	n/a	n/a	n/a	n/a	n/a	n/a	n/a	A3_01.jpg	500	0	742204	-1	742204	0	TrialProc1	A3HighLargeEDBlockList	2500	0	739705	0	739705	-3	739705	2499	c	1009	740714	107.961
111	2.5	000_R01_VB_allProc	47	1	"<?xml version=""1.0""?>\n<Clock xmlns:dt=""urn:schemas-microsoft-com:datatypes""><Description dt:dt=""string"">E-Prime Primary Realtime Clock</Description><StartTime><Timestamp dt:dt=""int"">0</Timestamp><DateUtc dt:dt=""string"">2019-08-02T17:54:54Z</DateUtc></StartTime><FrequencyChanges><FrequencyChange><Frequency dt:dt=""r8"">3020419</Frequency><Timestamp dt:dt=""r8"">287575163789</Timestamp><Current dt:dt=""r8"">0</Current><DateUtc dt:dt=""string"">2019-08-02T17:54:54Z</DateUtc></FrequencyChange></FrequencyChanges></Clock>\n"	000_R01_VB_allProc-47-1	60.022	1.0.0.185	1	-187071436	Professional	2.0.10.356	2.0.10.356	08-02-2019	8/2/2019 5:54:54 PM	13:54:54	2.0.10.252	4	0	0	631745	19	631745	3999	-999999	820312	-3	791685	0	Run3Proc	4	1	4	RunList	5	HighLargeED	8000	0	757698	0	757698	0	757698	0	A3HighLargeEDBlockProc	n/a	n/a	n/a	n/a	n/a	n/a	5.0	1.0	5.0	n/a	n/a	n/a	n/a	n/a	n/a	Run3BlockList	2	n/a	n/a	n/a	n/a	n/a	n/a	2.0	1.0	2.0	n/a	n/a	n/a	n/a	n/a	n/a	n/a	n/a	n/a	n/a	n/a	n/a	n/a	n/a	n/a	n/a	n/a	n/a	n/a	n/a	n/a	n/a	n/a	n/a	n/a	n/a	n/a	n/a	n/a	n/a	n/a	n/a	n/a	n/a	n/a	n/a	n/a	n/a	n/a	n/a	n/a	n/a	n/a	n/a	n/a	n/a	n/a	n/a	n/a	n/a	n/a	n/a	n/a	n/a	n/a	n/a	n/a	n/a	n/a	n/a	n/a	n/a	n/a	n/a	n/a	n/a	n/a	n/a	n/a	n/a	n/a	n/a	n/a	n/a	n/a	n/a	n/a	n/a	n/a	n/a	n/a	A3_02.jpg	500	0	745203	-1	745203	0	TrialProc1	A3HighLargeEDBlockList	2500	0	742704	0	742704	0	742704	2499	d	978	743682	110.96
114	2.5	000_R01_VB_allProc	47	1	"<?xml version=""1.0""?>\n<Clock xmlns:dt=""urn:schemas-microsoft-com:datatypes""><Description dt:dt=""string"">E-Prime Primary Realtime Clock</Description><StartTime><Timestamp dt:dt=""int"">0</Timestamp><DateUtc dt:dt=""string"">2019-08-02T17:54:54Z</DateUtc></StartTime><FrequencyChanges><FrequencyChange><Frequency dt:dt=""r8"">3020419</Frequency><Timestamp dt:dt=""r8"">287575163789</Timestamp><Current dt:dt=""r8"">0</Current><DateUtc dt:dt=""string"">2019-08-02T17:54:54Z</DateUtc></FrequencyChange></FrequencyChanges></Clock>\n"	000_R01_VB_allProc-47-1	60.022	1.0.0.185	1	-187071436	Professional	2.0.10.356	2.0.10.356	08-02-2019	8/2/2019 5:54:54 PM	13:54:54	2.0.10.252	4	0	0	631745	19	631745	3999	-999999	820312	-3	791685	0	Run3Proc	4	1	4	RunList	5	HighLargeED	8000	0	757698	0	757698	0	757698	0	A3HighLargeEDBlockProc	n/a	n/a	n/a	n/a	n/a	n/a	5.0	1.0	5.0	n/a	n/a	n/a	n/a	n/a	n/a	Run3BlockList	3	n/a	n/a	n/a	n/a	n/a	n/a	3.0	1.0	3.0	n/a	n/a	n/a	n/a	n/a	n/a	n/a	n/a	n/a	n/a	n/a	n/a	n/a	n/a	n/a	n/a	n/a	n/a	n/a	n/a	n/a	n/a	n/a	n/a	n/a	n/a	n/a	n/a	n/a	n/a	n/a	n/a	n/a	n/a	n/a	n/a	n/a	n/a	n/a	n/a	n/a	n/a	n/a	n/a	n/a	n/a	n/a	n/a	n/a	n/a	n/a	n/a	n/a	n/a	n/a	n/a	n/a	n/a	n/a	n/a	n/a	n/a	n/a	n/a	n/a	n/a	n/a	n/a	n/a	n/a	n/a	n/a	n/a	n/a	n/a	n/a	n/a	n/a	n/a	n/a	n/a	A3_03.jpg	500	0	748202	-1	748202	0	TrialProc1	A3HighLargeEDBlockList	2500	0	745703	0	745703	0	745703	2499	d	955	746658	113.959
117	2.5	000_R01_VB_allProc	47	1	"<?xml version=""1.0""?>\n<Clock xmlns:dt=""urn:schemas-microsoft-com:datatypes""><Description dt:dt=""string"">E-Prime Primary Realtime Clock</Description><StartTime><Timestamp dt:dt=""int"">0</Timestamp><DateUtc dt:dt=""string"">2019-08-02T17:54:54Z</DateUtc></StartTime><FrequencyChanges><FrequencyChange><Frequency dt:dt=""r8"">3020419</Frequency><Timestamp dt:dt=""r8"">287575163789</Timestamp><Current dt:dt=""r8"">0</Current><DateUtc dt:dt=""string"">2019-08-02T17:54:54Z</DateUtc></FrequencyChange></FrequencyChanges></Clock>\n"	000_R01_VB_allProc-47-1	60.022	1.0.0.185	1	-187071436	Professional	2.0.10.356	2.0.10.356	08-02-2019	8/2/2019 5:54:54 PM	13:54:54	2.0.10.252	4	0	0	631745	19	631745	3999	-999999	820312	-3	791685	0	Run3Proc	4	1	4	RunList	5	HighLargeED	8000	0	757698	0	757698	0	757698	0	A3HighLargeEDBlockProc	n/a	n/a	n/a	n/a	n/a	n/a	5.0	1.0	5.0	n/a	n/a	n/a	n/a	n/a	n/a	Run3BlockList	4	n/a	n/a	n/a	n/a	n/a	n/a	4.0	1.0	4.0	n/a	n/a	n/a	n/a	n/a	n/a	n/a	n/a	n/a	n/a	n/a	n/a	n/a	n/a	n/a	n/a	n/a	n/a	n/a	n/a	n/a	n/a	n/a	n/a	n/a	n/a	n/a	n/a	n/a	n/a	n/a	n/a	n/a	n/a	n/a	n/a	n/a	n/a	n/a	n/a	n/a	n/a	n/a	n/a	n/a	n/a	n/a	n/a	n/a	n/a	n/a	n/a	n/a	n/a	n/a	n/a	n/a	n/a	n/a	n/a	n/a	n/a	n/a	n/a	n/a	n/a	n/a	n/a	n/a	n/a	n/a	n/a	n/a	n/a	n/a	n/a	n/a	n/a	n/a	n/a	n/a	A3_04.jpg	500	1	751201	-1	751200	0	TrialProc1	A3HighLargeEDBlockList	2500	0	748701	0	748701	-1	748701	2499	d	941	749642	116.957
120	2.5	000_R01_VB_allProc	47	1	"<?xml version=""1.0""?>\n<Clock xmlns:dt=""urn:schemas-microsoft-com:datatypes""><Description dt:dt=""string"">E-Prime Primary Realtime Clock</Description><StartTime><Timestamp dt:dt=""int"">0</Timestamp><DateUtc dt:dt=""string"">2019-08-02T17:54:54Z</DateUtc></StartTime><FrequencyChanges><FrequencyChange><Frequency dt:dt=""r8"">3020419</Frequency><Timestamp dt:dt=""r8"">287575163789</Timestamp><Current dt:dt=""r8"">0</Current><DateUtc dt:dt=""string"">2019-08-02T17:54:54Z</DateUtc></FrequencyChange></FrequencyChanges></Clock>\n"	000_R01_VB_allProc-47-1	60.022	1.0.0.185	1	-187071436	Professional	2.0.10.356	2.0.10.356	08-02-2019	8/2/2019 5:54:54 PM	13:54:54	2.0.10.252	4	0	0	631745	19	631745	3999	-999999	820312	-3	791685	0	Run3Proc	4	1	4	RunList	5	HighLargeED	8000	0	757698	0	757698	0	757698	0	A3HighLargeEDBlockProc	n/a	n/a	n/a	n/a	n/a	n/a	5.0	1.0	5.0	n/a	n/a	n/a	n/a	n/a	n/a	Run3BlockList	5	n/a	n/a	n/a	n/a	n/a	n/a	5.0	1.0	5.0	n/a	n/a	n/a	n/a	n/a	n/a	n/a	n/a	n/a	n/a	n/a	n/a	n/a	n/a	n/a	n/a	n/a	n/a	n/a	n/a	n/a	n/a	n/a	n/a	n/a	n/a	n/a	n/a	n/a	n/a	n/a	n/a	n/a	n/a	n/a	n/a	n/a	n/a	n/a	n/a	n/a	n/a	n/a	n/a	n/a	n/a	n/a	n/a	n/a	n/a	n/a	n/a	n/a	n/a	n/a	n/a	n/a	n/a	n/a	n/a	n/a	n/a	n/a	n/a	n/a	n/a	n/a	n/a	n/a	n/a	n/a	n/a	n/a	n/a	n/a	n/a	n/a	n/a	n/a	n/a	n/a	A3_05.jpg	500	0	754199	-1	754199	0	TrialProc1	A3HighLargeEDBlockList	2500	0	751700	0	751700	0	751700	2499	d	1094	752794	119.956
123	2.5	000_R01_VB_allProc	47	1	"<?xml version=""1.0""?>\n<Clock xmlns:dt=""urn:schemas-microsoft-com:datatypes""><Description dt:dt=""string"">E-Prime Primary Realtime Clock</Description><StartTime><Timestamp dt:dt=""int"">0</Timestamp><DateUtc dt:dt=""string"">2019-08-02T17:54:54Z</DateUtc></StartTime><FrequencyChanges><FrequencyChange><Frequency dt:dt=""r8"">3020419</Frequency><Timestamp dt:dt=""r8"">287575163789</Timestamp><Current dt:dt=""r8"">0</Current><DateUtc dt:dt=""string"">2019-08-02T17:54:54Z</DateUtc></FrequencyChange></FrequencyChanges></Clock>\n"	000_R01_VB_allProc-47-1	60.022	1.0.0.185	1	-187071436	Professional	2.0.10.356	2.0.10.356	08-02-2019	8/2/2019 5:54:54 PM	13:54:54	2.0.10.252	4	0	0	631745	19	631745	3999	-999999	820312	-3	791685	0	Run3Proc	4	1	4	RunList	5	HighLargeED	8000	0	757698	0	757698	0	757698	0	A3HighLargeEDBlockProc	n/a	n/a	n/a	n/a	n/a	n/a	5.0	1.0	5.0	n/a	n/a	n/a	n/a	n/a	n/a	Run3BlockList	6	n/a	n/a	n/a	n/a	n/a	n/a	6.0	1.0	6.0	n/a	n/a	n/a	n/a	n/a	n/a	n/a	n/a	n/a	n/a	n/a	n/a	n/a	n/a	n/a	n/a	n/a	n/a	n/a	n/a	n/a	n/a	n/a	n/a	n/a	n/a	n/a	n/a	n/a	n/a	n/a	n/a	n/a	n/a	n/a	n/a	n/a	n/a	n/a	n/a	n/a	n/a	n/a	n/a	n/a	n/a	n/a	n/a	n/a	n/a	n/a	n/a	n/a	n/a	n/a	n/a	n/a	n/a	n/a	n/a	n/a	n/a	n/a	n/a	n/a	n/a	n/a	n/a	n/a	n/a	n/a	n/a	n/a	n/a	n/a	n/a	n/a	n/a	n/a	n/a	n/a	A3_06.jpg	500	0	757198	-1	757198	0	TrialProc1	A3HighLargeEDBlockList	2500	0	754699	0	754699	0	754699	2499	d	1231	755930	122.955
134	2.5	000_R01_VB_allProc	47	1	"<?xml version=""1.0""?>\n<Clock xmlns:dt=""urn:schemas-microsoft-com:datatypes""><Description dt:dt=""string"">E-Prime Primary Realtime Clock</Description><StartTime><Timestamp dt:dt=""int"">0</Timestamp><DateUtc dt:dt=""string"">2019-08-02T17:54:54Z</DateUtc></StartTime><FrequencyChanges><FrequencyChange><Frequency dt:dt=""r8"">3020419</Frequency><Timestamp dt:dt=""r8"">287575163789</Timestamp><Current dt:dt=""r8"">0</Current><DateUtc dt:dt=""string"">2019-08-02T17:54:54Z</DateUtc></FrequencyChange></FrequencyChanges></Clock>\n"	000_R01_VB_allProc-47-1	60.022	1.0.0.185	1	-187071436	Professional	2.0.10.356	2.0.10.356	08-02-2019	8/2/2019 5:54:54 PM	13:54:54	2.0.10.252	4	0	0	631745	19	631745	3999	-999999	820312	-3	791685	0	Run3Proc	4	1	4	RunList	6	LowLargeED	8000	0	783688	0	783688	0	783688	0	C3LowLargeEDBlockProc	n/a	n/a	n/a	n/a	n/a	n/a	6.0	1.0	6.0	n/a	n/a	n/a	n/a	n/a	n/a	Run3BlockList	1	n/a	n/a	n/a	n/a	n/a	n/a	n/a	n/a	n/a	n/a	n/a	n/a	n/a	n/a	n/a	n/a	n/a	n/a	n/a	n/a	n/a	n/a	n/a	n/a	n/a	n/a	n/a	n/a	n/a	n/a	n/a	n/a	n/a	n/a	n/a	n/a	1.0	1.0	1.0	n/a	n/a	n/a	n/a	n/a	n/a	n/a	n/a	n/a	n/a	n/a	n/a	n/a	n/a	n/a	n/a	n/a	n/a	n/a	n/a	n/a	n/a	n/a	n/a	n/a	n/a	n/a	n/a	n/a	n/a	n/a	n/a	n/a	n/a	n/a	n/a	n/a	n/a	n/a	n/a	n/a	n/a	n/a	n/a	n/a	n/a	n/a	n/a	n/a	n/a	n/a	C3_01.jpg	500	0	768194	-1	768194	0	TrialProc1	C3LowLargeEDBlockList	2500	0	765695	0	765695	-3	765695	2499	c	1179	766874	133.951
137	2.5	000_R01_VB_allProc	47	1	"<?xml version=""1.0""?>\n<Clock xmlns:dt=""urn:schemas-microsoft-com:datatypes""><Description dt:dt=""string"">E-Prime Primary Realtime Clock</Description><StartTime><Timestamp dt:dt=""int"">0</Timestamp><DateUtc dt:dt=""string"">2019-08-02T17:54:54Z</DateUtc></StartTime><FrequencyChanges><FrequencyChange><Frequency dt:dt=""r8"">3020419</Frequency><Timestamp dt:dt=""r8"">287575163789</Timestamp><Current dt:dt=""r8"">0</Current><DateUtc dt:dt=""string"">2019-08-02T17:54:54Z</DateUtc></FrequencyChange></FrequencyChanges></Clock>\n"	000_R01_VB_allProc-47-1	60.022	1.0.0.185	1	-187071436	Professional	2.0.10.356	2.0.10.356	08-02-2019	8/2/2019 5:54:54 PM	13:54:54	2.0.10.252	4	0	0	631745	19	631745	3999	-999999	820312	-3	791685	0	Run3Proc	4	1	4	RunList	6	LowLargeED	8000	0	783688	0	783688	0	783688	0	C3LowLargeEDBlockProc	n/a	n/a	n/a	n/a	n/a	n/a	6.0	1.0	6.0	n/a	n/a	n/a	n/a	n/a	n/a	Run3BlockList	2	n/a	n/a	n/a	n/a	n/a	n/a	n/a	n/a	n/a	n/a	n/a	n/a	n/a	n/a	n/a	n/a	n/a	n/a	n/a	n/a	n/a	n/a	n/a	n/a	n/a	n/a	n/a	n/a	n/a	n/a	n/a	n/a	n/a	n/a	n/a	n/a	2.0	1.0	2.0	n/a	n/a	n/a	n/a	n/a	n/a	n/a	n/a	n/a	n/a	n/a	n/a	n/a	n/a	n/a	n/a	n/a	n/a	n/a	n/a	n/a	n/a	n/a	n/a	n/a	n/a	n/a	n/a	n/a	n/a	n/a	n/a	n/a	n/a	n/a	n/a	n/a	n/a	n/a	n/a	n/a	n/a	n/a	n/a	n/a	n/a	n/a	n/a	n/a	n/a	n/a	C3_02.jpg	500	0	771193	-1	771193	0	TrialProc1	C3LowLargeEDBlockList	2500	0	768694	0	768694	0	768694	2499	c	1219	769913	136.95
140	2.5	000_R01_VB_allProc	47	1	"<?xml version=""1.0""?>\n<Clock xmlns:dt=""urn:schemas-microsoft-com:datatypes""><Description dt:dt=""string"">E-Prime Primary Realtime Clock</Description><StartTime><Timestamp dt:dt=""int"">0</Timestamp><DateUtc dt:dt=""string"">2019-08-02T17:54:54Z</DateUtc></StartTime><FrequencyChanges><FrequencyChange><Frequency dt:dt=""r8"">3020419</Frequency><Timestamp dt:dt=""r8"">287575163789</Timestamp><Current dt:dt=""r8"">0</Current><DateUtc dt:dt=""string"">2019-08-02T17:54:54Z</DateUtc></FrequencyChange></FrequencyChanges></Clock>\n"	000_R01_VB_allProc-47-1	60.022	1.0.0.185	1	-187071436	Professional	2.0.10.356	2.0.10.356	08-02-2019	8/2/2019 5:54:54 PM	13:54:54	2.0.10.252	4	0	0	631745	19	631745	3999	-999999	820312	-3	791685	0	Run3Proc	4	1	4	RunList	6	LowLargeED	8000	0	783688	0	783688	0	783688	0	C3LowLargeEDBlockProc	n/a	n/a	n/a	n/a	n/a	n/a	6.0	1.0	6.0	n/a	n/a	n/a	n/a	n/a	n/a	Run3BlockList	3	n/a	n/a	n/a	n/a	n/a	n/a	n/a	n/a	n/a	n/a	n/a	n/a	n/a	n/a	n/a	n/a	n/a	n/a	n/a	n/a	n/a	n/a	n/a	n/a	n/a	n/a	n/a	n/a	n/a	n/a	n/a	n/a	n/a	n/a	n/a	n/a	3.0	1.0	3.0	n/a	n/a	n/a	n/a	n/a	n/a	n/a	n/a	n/a	n/a	n/a	n/a	n/a	n/a	n/a	n/a	n/a	n/a	n/a	n/a	n/a	n/a	n/a	n/a	n/a	n/a	n/a	n/a	n/a	n/a	n/a	n/a	n/a	n/a	n/a	n/a	n/a	n/a	n/a	n/a	n/a	n/a	n/a	n/a	n/a	n/a	n/a	n/a	n/a	n/a	n/a	C3_03.jpg	500	0	774192	-1	774192	0	TrialProc1	C3LowLargeEDBlockList	2500	0	771693	0	771693	0	771693	2499	c	1116	772809	139.949
143	2.5	000_R01_VB_allProc	47	1	"<?xml version=""1.0""?>\n<Clock xmlns:dt=""urn:schemas-microsoft-com:datatypes""><Description dt:dt=""string"">E-Prime Primary Realtime Clock</Description><StartTime><Timestamp dt:dt=""int"">0</Timestamp><DateUtc dt:dt=""string"">2019-08-02T17:54:54Z</DateUtc></StartTime><FrequencyChanges><FrequencyChange><Frequency dt:dt=""r8"">3020419</Frequency><Timestamp dt:dt=""r8"">287575163789</Timestamp><Current dt:dt=""r8"">0</Current><DateUtc dt:dt=""string"">2019-08-02T17:54:54Z</DateUtc></FrequencyChange></FrequencyChanges></Clock>\n"	000_R01_VB_allProc-47-1	60.022	1.0.0.185	1	-187071436	Professional	2.0.10.356	2.0.10.356	08-02-2019	8/2/2019 5:54:54 PM	13:54:54	2.0.10.252	4	0	0	631745	19	631745	3999	-999999	820312	-3	791685	0	Run3Proc	4	1	4	RunList	6	LowLargeED	8000	0	783688	0	783688	0	783688	0	C3LowLargeEDBlockProc	n/a	n/a	n/a	n/a	n/a	n/a	6.0	1.0	6.0	n/a	n/a	n/a	n/a	n/a	n/a	Run3BlockList	4	n/a	n/a	n/a	n/a	n/a	n/a	n/a	n/a	n/a	n/a	n/a	n/a	n/a	n/a	n/a	n/a	n/a	n/a	n/a	n/a	n/a	n/a	n/a	n/a	n/a	n/a	n/a	n/a	n/a	n/a	n/a	n/a	n/a	n/a	n/a	n/a	4.0	1.0	4.0	n/a	n/a	n/a	n/a	n/a	n/a	n/a	n/a	n/a	n/a	n/a	n/a	n/a	n/a	n/a	n/a	n/a	n/a	n/a	n/a	n/a	n/a	n/a	n/a	n/a	n/a	n/a	n/a	n/a	n/a	n/a	n/a	n/a	n/a	n/a	n/a	n/a	n/a	n/a	n/a	n/a	n/a	n/a	n/a	n/a	n/a	n/a	n/a	n/a	n/a	n/a	C3_04.jpg	500	0	777191	-1	777191	0	TrialProc1	C3LowLargeEDBlockList	2500	0	774692	0	774692	0	774692	2499	c	965	775657	142.948
146	2.5	000_R01_VB_allProc	47	1	"<?xml version=""1.0""?>\n<Clock xmlns:dt=""urn:schemas-microsoft-com:datatypes""><Description dt:dt=""string"">E-Prime Primary Realtime Clock</Description><StartTime><Timestamp dt:dt=""int"">0</Timestamp><DateUtc dt:dt=""string"">2019-08-02T17:54:54Z</DateUtc></StartTime><FrequencyChanges><FrequencyChange><Frequency dt:dt=""r8"">3020419</Frequency><Timestamp dt:dt=""r8"">287575163789</Timestamp><Current dt:dt=""r8"">0</Current><DateUtc dt:dt=""string"">2019-08-02T17:54:54Z</DateUtc></FrequencyChange></FrequencyChanges></Clock>\n"	000_R01_VB_allProc-47-1	60.022	1.0.0.185	1	-187071436	Professional	2.0.10.356	2.0.10.356	08-02-2019	8/2/2019 5:54:54 PM	13:54:54	2.0.10.252	4	0	0	631745	19	631745	3999	-999999	820312	-3	791685	0	Run3Proc	4	1	4	RunList	6	LowLargeED	8000	0	783688	0	783688	0	783688	0	C3LowLargeEDBlockProc	n/a	n/a	n/a	n/a	n/a	n/a	6.0	1.0	6.0	n/a	n/a	n/a	n/a	n/a	n/a	Run3BlockList	5	n/a	n/a	n/a	n/a	n/a	n/a	n/a	n/a	n/a	n/a	n/a	n/a	n/a	n/a	n/a	n/a	n/a	n/a	n/a	n/a	n/a	n/a	n/a	n/a	n/a	n/a	n/a	n/a	n/a	n/a	n/a	n/a	n/a	n/a	n/a	n/a	5.0	1.0	5.0	n/a	n/a	n/a	n/a	n/a	n/a	n/a	n/a	n/a	n/a	n/a	n/a	n/a	n/a	n/a	n/a	n/a	n/a	n/a	n/a	n/a	n/a	n/a	n/a	n/a	n/a	n/a	n/a	n/a	n/a	n/a	n/a	n/a	n/a	n/a	n/a	n/a	n/a	n/a	n/a	n/a	n/a	n/a	n/a	n/a	n/a	n/a	n/a	n/a	n/a	n/a	C3_05.jpg	500	0	780190	-1	780190	0	TrialProc1	C3LowLargeEDBlockList	2500	0	777691	0	777691	0	777691	2499	d	1190	778881	145.947
149	2.5	000_R01_VB_allProc	47	1	"<?xml version=""1.0""?>\n<Clock xmlns:dt=""urn:schemas-microsoft-com:datatypes""><Description dt:dt=""string"">E-Prime Primary Realtime Clock</Description><StartTime><Timestamp dt:dt=""int"">0</Timestamp><DateUtc dt:dt=""string"">2019-08-02T17:54:54Z</DateUtc></StartTime><FrequencyChanges><FrequencyChange><Frequency dt:dt=""r8"">3020419</Frequency><Timestamp dt:dt=""r8"">287575163789</Timestamp><Current dt:dt=""r8"">0</Current><DateUtc dt:dt=""string"">2019-08-02T17:54:54Z</DateUtc></FrequencyChange></FrequencyChanges></Clock>\n"	000_R01_VB_allProc-47-1	60.022	1.0.0.185	1	-187071436	Professional	2.0.10.356	2.0.10.356	08-02-2019	8/2/2019 5:54:54 PM	13:54:54	2.0.10.252	4	0	0	631745	19	631745	3999	-999999	820312	-3	791685	0	Run3Proc	4	1	4	RunList	6	LowLargeED	8000	0	783688	0	783688	0	783688	0	C3LowLargeEDBlockProc	n/a	n/a	n/a	n/a	n/a	n/a	6.0	1.0	6.0	n/a	n/a	n/a	n/a	n/a	n/a	Run3BlockList	6	n/a	n/a	n/a	n/a	n/a	n/a	n/a	n/a	n/a	n/a	n/a	n/a	n/a	n/a	n/a	n/a	n/a	n/a	n/a	n/a	n/a	n/a	n/a	n/a	n/a	n/a	n/a	n/a	n/a	n/a	n/a	n/a	n/a	n/a	n/a	n/a	6.0	1.0	6.0	n/a	n/a	n/a	n/a	n/a	n/a	n/a	n/a	n/a	n/a	n/a	n/a	n/a	n/a	n/a	n/a	n/a	n/a	n/a	n/a	n/a	n/a	n/a	n/a	n/a	n/a	n/a	n/a	n/a	n/a	n/a	n/a	n/a	n/a	n/a	n/a	n/a	n/a	n/a	n/a	n/a	n/a	n/a	n/a	n/a	n/a	n/a	n/a	n/a	n/a	n/a	C3_06.jpg	500	1	783189	-1	783188	0	TrialProc1	C3LowLargeEDBlockList	2500	0	780689	0	780689	-1	780689	2499	c	1448	782137	148.945
