onset	duration	experiment_name	sub	ses	datafile_basename	display_refreshrate	group	randomseed	session_date	session_start_date_time_utc	session_time	block	fixation2trs_durationerror	fixation2trs_offsetdelay	fixation2trs_offsettime	fixation2trs_onsetdelay	fixation2trs_onsettime	fixation2trs_onsettoonsettime	goodwork_durationerror	goodwork_finishtime	goodwork_onsetdelay	goodwork_onsettime	goodwork_onsettoonsettime	procedure_block	runlist	runlist_cycle	runlist_sample	running_block	trial	condition	interblockinterval_duration	interblockinterval_durationerror	interblockinterval_finishtime	interblockinterval_offsetdelay	interblockinterval_offsettime	interblockinterval_onsetdelay	interblockinterval_onsettime	interblockinterval_onsettoonsettime	procedure_trial	run2blocklist	run2blocklist_cycle	run2blocklist_sample	run3blocklist	run3blocklist_cycle	run3blocklist_sample	run4blocklist	run4blocklist_cycle	run4blocklist_sample	run5blocklist	run5blocklist_cycle	run5blocklist_sample	running_trial	subtrial	a2highlargeedblocklist	a2highlargeedblocklist_cycle	a2highlargeedblocklist_sample	a3highlargeedblocklist	a3highlargeedblocklist_cycle	a3highlargeedblocklist_sample	a4highlargeedblocklist	a4highlargeedblocklist_cycle	a4highlargeedblocklist_sample	a5highlargeedblocklist	a5highlargeedblocklist_cycle	a5highlargeedblocklist_sample	b2highsmalledblocklist	b2highsmalledblocklist_cycle	b2highsmalledblocklist_sample	b3highsmalledblocklist	b3highsmalledblocklist_cycle	b3highsmalledblocklist_sample	b4highsmalledblocklist	b4highsmalledblocklist_cycle	b4highsmalledblocklist_sample	b5highsmalledblocklist	b5highsmalledblocklist_cycle	b5highsmalledblocklist_sample	c2lowlargeedblocklist	c2lowlargeedblocklist_cycle	c2lowlargeedblocklist_sample	c3lowlargeedblocklist	c3lowlargeedblocklist_cycle	c3lowlargeedblocklist_sample	c4lowlargeedblocklist	c4lowlargeedblocklist_cycle	c4lowlargeedblocklist_sample	c5lowlargeedblocklist	c5lowlargeedblocklist_cycle	c5lowlargeedblocklist_sample	d2highlargeedblocklist	d2highlargeedblocklist_cycle	d2highlargeedblocklist_sample	d3lowsmalledblocklist	d3lowsmalledblocklist_cycle	d3lowsmalledblocklist_sample	d4lowsmalledblocklist	d4lowsmalledblocklist_cycle	d4lowsmalledblocklist_sample	d5lowsmalledblocklist	d5lowsmalledblocklist_cycle	d5lowsmalledblocklist_sample	e2officelargeblocklist	e2officelargeblocklist_cycle	e2officelargeblocklist_sample	e3officelargeblocklist	e3officelargeblocklist_cycle	e3officelargeblocklist_sample	e4officelargeblocklist	e4officelargeblocklist_cycle	e4officelargeblocklist_sample	e5officelargeblocklist	e5officelargeblocklist_cycle	e5officelargeblocklist_sample	f2officesmallblocklist	f2officesmallblocklist_cycle	f2officesmallblocklist_sample	f3officesmallblocklist	f3officesmallblocklist_cycle	f3officesmallblocklist_sample	f4officesmallblocklist	f4officesmallblocklist_cycle	f4officesmallblocklist_sample	f5officesmallblocklist	f5officesmallblocklist_cycle	f5officesmallblocklist_sample	filename	isi_duration	isi_durationerror	isi_finishtime	isi_onsetdelay	isi_onsettime	isi_onsettoonsettime	procedure_subtrial	running_subtrial	stimslide_duration	stimslide_durationerror	stimslide_finishtime	stimslide_offsetdelay	stimslide_offsettime	stimslide_onsetdelay	stimslide_onsettime	stimslide_onsettoonsettime	stimslide_resp	stimslide_rt	stimslide_rttime	onset_unrounded
4	2.5	000_R01_VB_allProc	35	1	000_R01_VB_allProc-35-1	60.03	1	-1671241647	8/6/18	8/6/18 17:29	13:29:24	4	n/a	n/a	n/a	n/a	n/a	n/a	n/a	n/a	n/a	n/a	n/a	n/a	4	n/a	n/a	n/a	1	LowSmallED	8000.0	0.0	621418.0	0.0	621418.0	0.0	621418.0	0.0	D3LowSmallEDBlockProc	n/a	n/a	n/a	1.0	1.0	1.0	n/a	n/a	n/a	n/a	n/a	n/a	Run3BlockList	1	n/a	n/a	n/a	n/a	n/a	n/a	n/a	n/a	n/a	n/a	n/a	n/a	n/a	n/a	n/a	n/a	n/a	n/a	n/a	n/a	n/a	n/a	n/a	n/a	n/a	n/a	n/a	n/a	n/a	n/a	n/a	n/a	n/a	n/a	n/a	n/a	n/a	n/a	n/a	1.0	1.0	1.0	n/a	n/a	n/a	n/a	n/a	n/a	n/a	n/a	n/a	n/a	n/a	n/a	n/a	n/a	n/a	n/a	n/a	n/a	n/a	n/a	n/a	n/a	n/a	n/a	n/a	n/a	n/a	n/a	n/a	n/a	D3_01.jpg	500	0	605923	-1	605923	0	TrialProc1	D3LowSmallEDBlockList	2500	0	603424	0	603424	-2	603424	2499	d	823	604247	4.0
7	2.5	000_R01_VB_allProc	35	1	000_R01_VB_allProc-35-1	60.03	1	-1671241647	8/6/18	8/6/18 17:29	13:29:24	4	n/a	n/a	n/a	n/a	n/a	n/a	n/a	n/a	n/a	n/a	n/a	n/a	4	n/a	n/a	n/a	1	LowSmallED	8000.0	0.0	621418.0	0.0	621418.0	0.0	621418.0	0.0	D3LowSmallEDBlockProc	n/a	n/a	n/a	1.0	1.0	1.0	n/a	n/a	n/a	n/a	n/a	n/a	Run3BlockList	2	n/a	n/a	n/a	n/a	n/a	n/a	n/a	n/a	n/a	n/a	n/a	n/a	n/a	n/a	n/a	n/a	n/a	n/a	n/a	n/a	n/a	n/a	n/a	n/a	n/a	n/a	n/a	n/a	n/a	n/a	n/a	n/a	n/a	n/a	n/a	n/a	n/a	n/a	n/a	2.0	1.0	2.0	n/a	n/a	n/a	n/a	n/a	n/a	n/a	n/a	n/a	n/a	n/a	n/a	n/a	n/a	n/a	n/a	n/a	n/a	n/a	n/a	n/a	n/a	n/a	n/a	n/a	n/a	n/a	n/a	n/a	n/a	D3_02.jpg	500	0	608922	-1	608922	0	TrialProc1	D3LowSmallEDBlockList	2500	0	606423	0	606423	0	606423	2499	d	872	607295	6.9990000000000006
10	2.5	000_R01_VB_allProc	35	1	000_R01_VB_allProc-35-1	60.03	1	-1671241647	8/6/18	8/6/18 17:29	13:29:24	4	n/a	n/a	n/a	n/a	n/a	n/a	n/a	n/a	n/a	n/a	n/a	n/a	4	n/a	n/a	n/a	1	LowSmallED	8000.0	0.0	621418.0	0.0	621418.0	0.0	621418.0	0.0	D3LowSmallEDBlockProc	n/a	n/a	n/a	1.0	1.0	1.0	n/a	n/a	n/a	n/a	n/a	n/a	Run3BlockList	3	n/a	n/a	n/a	n/a	n/a	n/a	n/a	n/a	n/a	n/a	n/a	n/a	n/a	n/a	n/a	n/a	n/a	n/a	n/a	n/a	n/a	n/a	n/a	n/a	n/a	n/a	n/a	n/a	n/a	n/a	n/a	n/a	n/a	n/a	n/a	n/a	n/a	n/a	n/a	3.0	1.0	3.0	n/a	n/a	n/a	n/a	n/a	n/a	n/a	n/a	n/a	n/a	n/a	n/a	n/a	n/a	n/a	n/a	n/a	n/a	n/a	n/a	n/a	n/a	n/a	n/a	n/a	n/a	n/a	n/a	n/a	n/a	D3_03.jpg	500	0	611921	-1	611921	0	TrialProc1	D3LowSmallEDBlockList	2500	0	609422	0	609422	0	609422	2499	d	1657	611079	9.998000000000001
13	2.5	000_R01_VB_allProc	35	1	000_R01_VB_allProc-35-1	60.03	1	-1671241647	8/6/18	8/6/18 17:29	13:29:24	4	n/a	n/a	n/a	n/a	n/a	n/a	n/a	n/a	n/a	n/a	n/a	n/a	4	n/a	n/a	n/a	1	LowSmallED	8000.0	0.0	621418.0	0.0	621418.0	0.0	621418.0	0.0	D3LowSmallEDBlockProc	n/a	n/a	n/a	1.0	1.0	1.0	n/a	n/a	n/a	n/a	n/a	n/a	Run3BlockList	4	n/a	n/a	n/a	n/a	n/a	n/a	n/a	n/a	n/a	n/a	n/a	n/a	n/a	n/a	n/a	n/a	n/a	n/a	n/a	n/a	n/a	n/a	n/a	n/a	n/a	n/a	n/a	n/a	n/a	n/a	n/a	n/a	n/a	n/a	n/a	n/a	n/a	n/a	n/a	4.0	1.0	4.0	n/a	n/a	n/a	n/a	n/a	n/a	n/a	n/a	n/a	n/a	n/a	n/a	n/a	n/a	n/a	n/a	n/a	n/a	n/a	n/a	n/a	n/a	n/a	n/a	n/a	n/a	n/a	n/a	n/a	n/a	D3_04.jpg	500	0	614920	-1	614920	0	TrialProc1	D3LowSmallEDBlockList	2500	0	612421	0	612421	0	612421	2499	c	1298	613719	12.997
16	2.5	000_R01_VB_allProc	35	1	000_R01_VB_allProc-35-1	60.03	1	-1671241647	8/6/18	8/6/18 17:29	13:29:24	4	n/a	n/a	n/a	n/a	n/a	n/a	n/a	n/a	n/a	n/a	n/a	n/a	4	n/a	n/a	n/a	1	LowSmallED	8000.0	0.0	621418.0	0.0	621418.0	0.0	621418.0	0.0	D3LowSmallEDBlockProc	n/a	n/a	n/a	1.0	1.0	1.0	n/a	n/a	n/a	n/a	n/a	n/a	Run3BlockList	5	n/a	n/a	n/a	n/a	n/a	n/a	n/a	n/a	n/a	n/a	n/a	n/a	n/a	n/a	n/a	n/a	n/a	n/a	n/a	n/a	n/a	n/a	n/a	n/a	n/a	n/a	n/a	n/a	n/a	n/a	n/a	n/a	n/a	n/a	n/a	n/a	n/a	n/a	n/a	5.0	1.0	5.0	n/a	n/a	n/a	n/a	n/a	n/a	n/a	n/a	n/a	n/a	n/a	n/a	n/a	n/a	n/a	n/a	n/a	n/a	n/a	n/a	n/a	n/a	n/a	n/a	n/a	n/a	n/a	n/a	n/a	n/a	D3_05.jpg	500	0	617919	-1	617919	0	TrialProc1	D3LowSmallEDBlockList	2500	0	615420	0	615420	0	615420	2499	d	915	616335	15.996
19	2.5	000_R01_VB_allProc	35	1	000_R01_VB_allProc-35-1	60.03	1	-1671241647	8/6/18	8/6/18 17:29	13:29:24	4	n/a	n/a	n/a	n/a	n/a	n/a	n/a	n/a	n/a	n/a	n/a	n/a	4	n/a	n/a	n/a	1	LowSmallED	8000.0	0.0	621418.0	0.0	621418.0	0.0	621418.0	0.0	D3LowSmallEDBlockProc	n/a	n/a	n/a	1.0	1.0	1.0	n/a	n/a	n/a	n/a	n/a	n/a	Run3BlockList	6	n/a	n/a	n/a	n/a	n/a	n/a	n/a	n/a	n/a	n/a	n/a	n/a	n/a	n/a	n/a	n/a	n/a	n/a	n/a	n/a	n/a	n/a	n/a	n/a	n/a	n/a	n/a	n/a	n/a	n/a	n/a	n/a	n/a	n/a	n/a	n/a	n/a	n/a	n/a	6.0	1.0	6.0	n/a	n/a	n/a	n/a	n/a	n/a	n/a	n/a	n/a	n/a	n/a	n/a	n/a	n/a	n/a	n/a	n/a	n/a	n/a	n/a	n/a	n/a	n/a	n/a	n/a	n/a	n/a	n/a	n/a	n/a	D3_06.jpg	500	0	620918	-1	620918	0	TrialProc1	D3LowSmallEDBlockList	2500	0	618419	0	618419	0	618419	2499	c	740	619159	18.994999999999997
30	2.5	000_R01_VB_allProc	35	1	000_R01_VB_allProc-35-1	60.03	1	-1671241647	8/6/18	8/6/18 17:29	13:29:24	4	n/a	n/a	n/a	n/a	n/a	n/a	n/a	n/a	n/a	n/a	n/a	n/a	4	n/a	n/a	n/a	2	OfficeLarge	8000.0	0.0	647408.0	0.0	647408.0	0.0	647408.0	0.0	E3OfficeLargeBlockProc	n/a	n/a	n/a	2.0	1.0	2.0	n/a	n/a	n/a	n/a	n/a	n/a	Run3BlockList	1	n/a	n/a	n/a	n/a	n/a	n/a	n/a	n/a	n/a	n/a	n/a	n/a	n/a	n/a	n/a	n/a	n/a	n/a	n/a	n/a	n/a	n/a	n/a	n/a	n/a	n/a	n/a	n/a	n/a	n/a	n/a	n/a	n/a	n/a	n/a	n/a	n/a	n/a	n/a	n/a	n/a	n/a	n/a	n/a	n/a	n/a	n/a	n/a	n/a	n/a	n/a	1.0	1.0	1.0	n/a	n/a	n/a	n/a	n/a	n/a	n/a	n/a	n/a	n/a	n/a	n/a	n/a	n/a	n/a	n/a	n/a	n/a	E3_01.jpg	500	0	631914	-1	631914	0	TrialProc1	E3OfficeLargeBlockList	2500	0	629415	0	629415	-3	629415	2499	c	2320	631735	29.991
33	2.5	000_R01_VB_allProc	35	1	000_R01_VB_allProc-35-1	60.03	1	-1671241647	8/6/18	8/6/18 17:29	13:29:24	4	n/a	n/a	n/a	n/a	n/a	n/a	n/a	n/a	n/a	n/a	n/a	n/a	4	n/a	n/a	n/a	2	OfficeLarge	8000.0	0.0	647408.0	0.0	647408.0	0.0	647408.0	0.0	E3OfficeLargeBlockProc	n/a	n/a	n/a	2.0	1.0	2.0	n/a	n/a	n/a	n/a	n/a	n/a	Run3BlockList	2	n/a	n/a	n/a	n/a	n/a	n/a	n/a	n/a	n/a	n/a	n/a	n/a	n/a	n/a	n/a	n/a	n/a	n/a	n/a	n/a	n/a	n/a	n/a	n/a	n/a	n/a	n/a	n/a	n/a	n/a	n/a	n/a	n/a	n/a	n/a	n/a	n/a	n/a	n/a	n/a	n/a	n/a	n/a	n/a	n/a	n/a	n/a	n/a	n/a	n/a	n/a	2.0	1.0	2.0	n/a	n/a	n/a	n/a	n/a	n/a	n/a	n/a	n/a	n/a	n/a	n/a	n/a	n/a	n/a	n/a	n/a	n/a	E3_02.jpg	500	0	634913	0	634913	0	TrialProc1	E3OfficeLargeBlockList	2500	1	632414	1	632414	-1	632413	2500	n/a	0	0	32.989000000000004
36	2.5	000_R01_VB_allProc	35	1	000_R01_VB_allProc-35-1	60.03	1	-1671241647	8/6/18	8/6/18 17:29	13:29:24	4	n/a	n/a	n/a	n/a	n/a	n/a	n/a	n/a	n/a	n/a	n/a	n/a	4	n/a	n/a	n/a	2	OfficeLarge	8000.0	0.0	647408.0	0.0	647408.0	0.0	647408.0	0.0	E3OfficeLargeBlockProc	n/a	n/a	n/a	2.0	1.0	2.0	n/a	n/a	n/a	n/a	n/a	n/a	Run3BlockList	3	n/a	n/a	n/a	n/a	n/a	n/a	n/a	n/a	n/a	n/a	n/a	n/a	n/a	n/a	n/a	n/a	n/a	n/a	n/a	n/a	n/a	n/a	n/a	n/a	n/a	n/a	n/a	n/a	n/a	n/a	n/a	n/a	n/a	n/a	n/a	n/a	n/a	n/a	n/a	n/a	n/a	n/a	n/a	n/a	n/a	n/a	n/a	n/a	n/a	n/a	n/a	3.0	1.0	3.0	n/a	n/a	n/a	n/a	n/a	n/a	n/a	n/a	n/a	n/a	n/a	n/a	n/a	n/a	n/a	n/a	n/a	n/a	E3_03.jpg	500	1	637912	-1	637911	0	TrialProc1	E3OfficeLargeBlockList	2500	0	635412	0	635412	-1	635412	2499	n/a	0	0	35.988
39	2.5	000_R01_VB_allProc	35	1	000_R01_VB_allProc-35-1	60.03	1	-1671241647	8/6/18	8/6/18 17:29	13:29:24	4	n/a	n/a	n/a	n/a	n/a	n/a	n/a	n/a	n/a	n/a	n/a	n/a	4	n/a	n/a	n/a	2	OfficeLarge	8000.0	0.0	647408.0	0.0	647408.0	0.0	647408.0	0.0	E3OfficeLargeBlockProc	n/a	n/a	n/a	2.0	1.0	2.0	n/a	n/a	n/a	n/a	n/a	n/a	Run3BlockList	4	n/a	n/a	n/a	n/a	n/a	n/a	n/a	n/a	n/a	n/a	n/a	n/a	n/a	n/a	n/a	n/a	n/a	n/a	n/a	n/a	n/a	n/a	n/a	n/a	n/a	n/a	n/a	n/a	n/a	n/a	n/a	n/a	n/a	n/a	n/a	n/a	n/a	n/a	n/a	n/a	n/a	n/a	n/a	n/a	n/a	n/a	n/a	n/a	n/a	n/a	n/a	4.0	1.0	4.0	n/a	n/a	n/a	n/a	n/a	n/a	n/a	n/a	n/a	n/a	n/a	n/a	n/a	n/a	n/a	n/a	n/a	n/a	E3_04.jpg	500	0	640910	-1	640910	0	TrialProc1	E3OfficeLargeBlockList	2500	0	638411	0	638411	0	638411	2499	c	820	639231	38.987
42	2.5	000_R01_VB_allProc	35	1	000_R01_VB_allProc-35-1	60.03	1	-1671241647	8/6/18	8/6/18 17:29	13:29:24	4	n/a	n/a	n/a	n/a	n/a	n/a	n/a	n/a	n/a	n/a	n/a	n/a	4	n/a	n/a	n/a	2	OfficeLarge	8000.0	0.0	647408.0	0.0	647408.0	0.0	647408.0	0.0	E3OfficeLargeBlockProc	n/a	n/a	n/a	2.0	1.0	2.0	n/a	n/a	n/a	n/a	n/a	n/a	Run3BlockList	5	n/a	n/a	n/a	n/a	n/a	n/a	n/a	n/a	n/a	n/a	n/a	n/a	n/a	n/a	n/a	n/a	n/a	n/a	n/a	n/a	n/a	n/a	n/a	n/a	n/a	n/a	n/a	n/a	n/a	n/a	n/a	n/a	n/a	n/a	n/a	n/a	n/a	n/a	n/a	n/a	n/a	n/a	n/a	n/a	n/a	n/a	n/a	n/a	n/a	n/a	n/a	5.0	1.0	5.0	n/a	n/a	n/a	n/a	n/a	n/a	n/a	n/a	n/a	n/a	n/a	n/a	n/a	n/a	n/a	n/a	n/a	n/a	E3_05.jpg	500	0	643909	-1	643909	0	TrialProc1	E3OfficeLargeBlockList	2500	0	641410	0	641410	0	641410	2499	d	741	642151	41.986
45	2.5	000_R01_VB_allProc	35	1	000_R01_VB_allProc-35-1	60.03	1	-1671241647	8/6/18	8/6/18 17:29	13:29:24	4	n/a	n/a	n/a	n/a	n/a	n/a	n/a	n/a	n/a	n/a	n/a	n/a	4	n/a	n/a	n/a	2	OfficeLarge	8000.0	0.0	647408.0	0.0	647408.0	0.0	647408.0	0.0	E3OfficeLargeBlockProc	n/a	n/a	n/a	2.0	1.0	2.0	n/a	n/a	n/a	n/a	n/a	n/a	Run3BlockList	6	n/a	n/a	n/a	n/a	n/a	n/a	n/a	n/a	n/a	n/a	n/a	n/a	n/a	n/a	n/a	n/a	n/a	n/a	n/a	n/a	n/a	n/a	n/a	n/a	n/a	n/a	n/a	n/a	n/a	n/a	n/a	n/a	n/a	n/a	n/a	n/a	n/a	n/a	n/a	n/a	n/a	n/a	n/a	n/a	n/a	n/a	n/a	n/a	n/a	n/a	n/a	6.0	1.0	6.0	n/a	n/a	n/a	n/a	n/a	n/a	n/a	n/a	n/a	n/a	n/a	n/a	n/a	n/a	n/a	n/a	n/a	n/a	E3_06.jpg	500	0	646908	-1	646908	0	TrialProc1	E3OfficeLargeBlockList	2500	0	644409	0	644409	0	644409	2499	d	966	645375	44.985
56	2.5	000_R01_VB_allProc	35	1	000_R01_VB_allProc-35-1	60.03	1	-1671241647	8/6/18	8/6/18 17:29	13:29:24	4	n/a	n/a	n/a	n/a	n/a	n/a	n/a	n/a	n/a	n/a	n/a	n/a	4	n/a	n/a	n/a	3	HighSmallED	8000.0	0.0	673398.0	0.0	673398.0	-1.0	673398.0	0.0	B3HighSmallEDBlockProc	n/a	n/a	n/a	3.0	1.0	3.0	n/a	n/a	n/a	n/a	n/a	n/a	Run3BlockList	1	n/a	n/a	n/a	n/a	n/a	n/a	n/a	n/a	n/a	n/a	n/a	n/a	n/a	n/a	n/a	1.0	1.0	1.0	n/a	n/a	n/a	n/a	n/a	n/a	n/a	n/a	n/a	n/a	n/a	n/a	n/a	n/a	n/a	n/a	n/a	n/a	n/a	n/a	n/a	n/a	n/a	n/a	n/a	n/a	n/a	n/a	n/a	n/a	n/a	n/a	n/a	n/a	n/a	n/a	n/a	n/a	n/a	n/a	n/a	n/a	n/a	n/a	n/a	n/a	n/a	n/a	n/a	n/a	n/a	n/a	n/a	n/a	B3_01.jpg	500	0	657904	-1	657904	0	TrialProc1	B3HighSmallEDBlockList	2500	0	655405	0	655405	-3	655405	2499	d	1834	657239	55.981
59	2.5	000_R01_VB_allProc	35	1	000_R01_VB_allProc-35-1	60.03	1	-1671241647	8/6/18	8/6/18 17:29	13:29:24	4	n/a	n/a	n/a	n/a	n/a	n/a	n/a	n/a	n/a	n/a	n/a	n/a	4	n/a	n/a	n/a	3	HighSmallED	8000.0	0.0	673398.0	0.0	673398.0	-1.0	673398.0	0.0	B3HighSmallEDBlockProc	n/a	n/a	n/a	3.0	1.0	3.0	n/a	n/a	n/a	n/a	n/a	n/a	Run3BlockList	2	n/a	n/a	n/a	n/a	n/a	n/a	n/a	n/a	n/a	n/a	n/a	n/a	n/a	n/a	n/a	2.0	1.0	2.0	n/a	n/a	n/a	n/a	n/a	n/a	n/a	n/a	n/a	n/a	n/a	n/a	n/a	n/a	n/a	n/a	n/a	n/a	n/a	n/a	n/a	n/a	n/a	n/a	n/a	n/a	n/a	n/a	n/a	n/a	n/a	n/a	n/a	n/a	n/a	n/a	n/a	n/a	n/a	n/a	n/a	n/a	n/a	n/a	n/a	n/a	n/a	n/a	n/a	n/a	n/a	n/a	n/a	n/a	B3_02.jpg	500	0	660903	-1	660903	0	TrialProc1	B3HighSmallEDBlockList	2500	0	658404	0	658404	0	658404	2499	n/a	0	0	58.98
62	2.5	000_R01_VB_allProc	35	1	000_R01_VB_allProc-35-1	60.03	1	-1671241647	8/6/18	8/6/18 17:29	13:29:24	4	n/a	n/a	n/a	n/a	n/a	n/a	n/a	n/a	n/a	n/a	n/a	n/a	4	n/a	n/a	n/a	3	HighSmallED	8000.0	0.0	673398.0	0.0	673398.0	-1.0	673398.0	0.0	B3HighSmallEDBlockProc	n/a	n/a	n/a	3.0	1.0	3.0	n/a	n/a	n/a	n/a	n/a	n/a	Run3BlockList	3	n/a	n/a	n/a	n/a	n/a	n/a	n/a	n/a	n/a	n/a	n/a	n/a	n/a	n/a	n/a	3.0	1.0	3.0	n/a	n/a	n/a	n/a	n/a	n/a	n/a	n/a	n/a	n/a	n/a	n/a	n/a	n/a	n/a	n/a	n/a	n/a	n/a	n/a	n/a	n/a	n/a	n/a	n/a	n/a	n/a	n/a	n/a	n/a	n/a	n/a	n/a	n/a	n/a	n/a	n/a	n/a	n/a	n/a	n/a	n/a	n/a	n/a	n/a	n/a	n/a	n/a	n/a	n/a	n/a	n/a	n/a	n/a	B3_03.jpg	500	0	663902	-1	663902	0	TrialProc1	B3HighSmallEDBlockList	2500	0	661403	0	661403	0	661403	2499	d	2251	663654	61.979
65	2.5	000_R01_VB_allProc	35	1	000_R01_VB_allProc-35-1	60.03	1	-1671241647	8/6/18	8/6/18 17:29	13:29:24	4	n/a	n/a	n/a	n/a	n/a	n/a	n/a	n/a	n/a	n/a	n/a	n/a	4	n/a	n/a	n/a	3	HighSmallED	8000.0	0.0	673398.0	0.0	673398.0	-1.0	673398.0	0.0	B3HighSmallEDBlockProc	n/a	n/a	n/a	3.0	1.0	3.0	n/a	n/a	n/a	n/a	n/a	n/a	Run3BlockList	4	n/a	n/a	n/a	n/a	n/a	n/a	n/a	n/a	n/a	n/a	n/a	n/a	n/a	n/a	n/a	4.0	1.0	4.0	n/a	n/a	n/a	n/a	n/a	n/a	n/a	n/a	n/a	n/a	n/a	n/a	n/a	n/a	n/a	n/a	n/a	n/a	n/a	n/a	n/a	n/a	n/a	n/a	n/a	n/a	n/a	n/a	n/a	n/a	n/a	n/a	n/a	n/a	n/a	n/a	n/a	n/a	n/a	n/a	n/a	n/a	n/a	n/a	n/a	n/a	n/a	n/a	n/a	n/a	n/a	n/a	n/a	n/a	B3_04.jpg	500	0	666901	-1	666901	0	TrialProc1	B3HighSmallEDBlockList	2500	0	664402	0	664402	0	664402	2499	n/a	0	0	64.97800000000001
68	2.5	000_R01_VB_allProc	35	1	000_R01_VB_allProc-35-1	60.03	1	-1671241647	8/6/18	8/6/18 17:29	13:29:24	4	n/a	n/a	n/a	n/a	n/a	n/a	n/a	n/a	n/a	n/a	n/a	n/a	4	n/a	n/a	n/a	3	HighSmallED	8000.0	0.0	673398.0	0.0	673398.0	-1.0	673398.0	0.0	B3HighSmallEDBlockProc	n/a	n/a	n/a	3.0	1.0	3.0	n/a	n/a	n/a	n/a	n/a	n/a	Run3BlockList	5	n/a	n/a	n/a	n/a	n/a	n/a	n/a	n/a	n/a	n/a	n/a	n/a	n/a	n/a	n/a	5.0	1.0	5.0	n/a	n/a	n/a	n/a	n/a	n/a	n/a	n/a	n/a	n/a	n/a	n/a	n/a	n/a	n/a	n/a	n/a	n/a	n/a	n/a	n/a	n/a	n/a	n/a	n/a	n/a	n/a	n/a	n/a	n/a	n/a	n/a	n/a	n/a	n/a	n/a	n/a	n/a	n/a	n/a	n/a	n/a	n/a	n/a	n/a	n/a	n/a	n/a	n/a	n/a	n/a	n/a	n/a	n/a	B3_05.jpg	500	0	669900	-1	669900	0	TrialProc1	B3HighSmallEDBlockList	2500	0	667401	0	667401	0	667401	2499	n/a	0	0	67.977
71	2.5	000_R01_VB_allProc	35	1	000_R01_VB_allProc-35-1	60.03	1	-1671241647	8/6/18	8/6/18 17:29	13:29:24	4	n/a	n/a	n/a	n/a	n/a	n/a	n/a	n/a	n/a	n/a	n/a	n/a	4	n/a	n/a	n/a	3	HighSmallED	8000.0	0.0	673398.0	0.0	673398.0	-1.0	673398.0	0.0	B3HighSmallEDBlockProc	n/a	n/a	n/a	3.0	1.0	3.0	n/a	n/a	n/a	n/a	n/a	n/a	Run3BlockList	6	n/a	n/a	n/a	n/a	n/a	n/a	n/a	n/a	n/a	n/a	n/a	n/a	n/a	n/a	n/a	6.0	1.0	6.0	n/a	n/a	n/a	n/a	n/a	n/a	n/a	n/a	n/a	n/a	n/a	n/a	n/a	n/a	n/a	n/a	n/a	n/a	n/a	n/a	n/a	n/a	n/a	n/a	n/a	n/a	n/a	n/a	n/a	n/a	n/a	n/a	n/a	n/a	n/a	n/a	n/a	n/a	n/a	n/a	n/a	n/a	n/a	n/a	n/a	n/a	n/a	n/a	n/a	n/a	n/a	n/a	n/a	n/a	B3_06.jpg	500	0	672899	0	672899	0	TrialProc1	B3HighSmallEDBlockList	2500	1	670400	1	670400	-1	670399	2500	n/a	0	0	70.975
82	2.5	000_R01_VB_allProc	35	1	000_R01_VB_allProc-35-1	60.03	1	-1671241647	8/6/18	8/6/18 17:29	13:29:24	4	n/a	n/a	n/a	n/a	n/a	n/a	n/a	n/a	n/a	n/a	n/a	n/a	4	n/a	n/a	n/a	4	OfficeSmall	8000.0	0.0	699389.0	0.0	699389.0	0.0	699389.0	0.0	F3OfficeSmallBlockProc	n/a	n/a	n/a	4.0	1.0	4.0	n/a	n/a	n/a	n/a	n/a	n/a	Run3BlockList	1	n/a	n/a	n/a	n/a	n/a	n/a	n/a	n/a	n/a	n/a	n/a	n/a	n/a	n/a	n/a	n/a	n/a	n/a	n/a	n/a	n/a	n/a	n/a	n/a	n/a	n/a	n/a	n/a	n/a	n/a	n/a	n/a	n/a	n/a	n/a	n/a	n/a	n/a	n/a	n/a	n/a	n/a	n/a	n/a	n/a	n/a	n/a	n/a	n/a	n/a	n/a	n/a	n/a	n/a	n/a	n/a	n/a	n/a	n/a	n/a	n/a	n/a	n/a	1.0	1.0	1.0	n/a	n/a	n/a	n/a	n/a	n/a	F3_01.jpg	500	1	683895	-1	683894	0	TrialProc1	F3OfficeSmallBlockList	2500	0	681396	0	681395	-3	681395	2499	n/a	0	0	81.971
85	2.5	000_R01_VB_allProc	35	1	000_R01_VB_allProc-35-1	60.03	1	-1671241647	8/6/18	8/6/18 17:29	13:29:24	4	n/a	n/a	n/a	n/a	n/a	n/a	n/a	n/a	n/a	n/a	n/a	n/a	4	n/a	n/a	n/a	4	OfficeSmall	8000.0	0.0	699389.0	0.0	699389.0	0.0	699389.0	0.0	F3OfficeSmallBlockProc	n/a	n/a	n/a	4.0	1.0	4.0	n/a	n/a	n/a	n/a	n/a	n/a	Run3BlockList	2	n/a	n/a	n/a	n/a	n/a	n/a	n/a	n/a	n/a	n/a	n/a	n/a	n/a	n/a	n/a	n/a	n/a	n/a	n/a	n/a	n/a	n/a	n/a	n/a	n/a	n/a	n/a	n/a	n/a	n/a	n/a	n/a	n/a	n/a	n/a	n/a	n/a	n/a	n/a	n/a	n/a	n/a	n/a	n/a	n/a	n/a	n/a	n/a	n/a	n/a	n/a	n/a	n/a	n/a	n/a	n/a	n/a	n/a	n/a	n/a	n/a	n/a	n/a	2.0	1.0	2.0	n/a	n/a	n/a	n/a	n/a	n/a	F3_02.jpg	500	0	686893	-1	686893	0	TrialProc1	F3OfficeSmallBlockList	2500	0	684394	0	684394	0	684394	2499	n/a	0	0	84.97
88	2.5	000_R01_VB_allProc	35	1	000_R01_VB_allProc-35-1	60.03	1	-1671241647	8/6/18	8/6/18 17:29	13:29:24	4	n/a	n/a	n/a	n/a	n/a	n/a	n/a	n/a	n/a	n/a	n/a	n/a	4	n/a	n/a	n/a	4	OfficeSmall	8000.0	0.0	699389.0	0.0	699389.0	0.0	699389.0	0.0	F3OfficeSmallBlockProc	n/a	n/a	n/a	4.0	1.0	4.0	n/a	n/a	n/a	n/a	n/a	n/a	Run3BlockList	3	n/a	n/a	n/a	n/a	n/a	n/a	n/a	n/a	n/a	n/a	n/a	n/a	n/a	n/a	n/a	n/a	n/a	n/a	n/a	n/a	n/a	n/a	n/a	n/a	n/a	n/a	n/a	n/a	n/a	n/a	n/a	n/a	n/a	n/a	n/a	n/a	n/a	n/a	n/a	n/a	n/a	n/a	n/a	n/a	n/a	n/a	n/a	n/a	n/a	n/a	n/a	n/a	n/a	n/a	n/a	n/a	n/a	n/a	n/a	n/a	n/a	n/a	n/a	3.0	1.0	3.0	n/a	n/a	n/a	n/a	n/a	n/a	F3_03.jpg	500	0	689892	-1	689892	0	TrialProc1	F3OfficeSmallBlockList	2500	0	687393	0	687393	0	687393	2499	d	2405	689798	87.969
91	2.5	000_R01_VB_allProc	35	1	000_R01_VB_allProc-35-1	60.03	1	-1671241647	8/6/18	8/6/18 17:29	13:29:24	4	n/a	n/a	n/a	n/a	n/a	n/a	n/a	n/a	n/a	n/a	n/a	n/a	4	n/a	n/a	n/a	4	OfficeSmall	8000.0	0.0	699389.0	0.0	699389.0	0.0	699389.0	0.0	F3OfficeSmallBlockProc	n/a	n/a	n/a	4.0	1.0	4.0	n/a	n/a	n/a	n/a	n/a	n/a	Run3BlockList	4	n/a	n/a	n/a	n/a	n/a	n/a	n/a	n/a	n/a	n/a	n/a	n/a	n/a	n/a	n/a	n/a	n/a	n/a	n/a	n/a	n/a	n/a	n/a	n/a	n/a	n/a	n/a	n/a	n/a	n/a	n/a	n/a	n/a	n/a	n/a	n/a	n/a	n/a	n/a	n/a	n/a	n/a	n/a	n/a	n/a	n/a	n/a	n/a	n/a	n/a	n/a	n/a	n/a	n/a	n/a	n/a	n/a	n/a	n/a	n/a	n/a	n/a	n/a	4.0	1.0	4.0	n/a	n/a	n/a	n/a	n/a	n/a	F3_04.jpg	500	0	692891	-1	692891	0	TrialProc1	F3OfficeSmallBlockList	2500	0	690392	0	690392	0	690392	2499	d	902	691294	90.968
94	2.5	000_R01_VB_allProc	35	1	000_R01_VB_allProc-35-1	60.03	1	-1671241647	8/6/18	8/6/18 17:29	13:29:24	4	n/a	n/a	n/a	n/a	n/a	n/a	n/a	n/a	n/a	n/a	n/a	n/a	4	n/a	n/a	n/a	4	OfficeSmall	8000.0	0.0	699389.0	0.0	699389.0	0.0	699389.0	0.0	F3OfficeSmallBlockProc	n/a	n/a	n/a	4.0	1.0	4.0	n/a	n/a	n/a	n/a	n/a	n/a	Run3BlockList	5	n/a	n/a	n/a	n/a	n/a	n/a	n/a	n/a	n/a	n/a	n/a	n/a	n/a	n/a	n/a	n/a	n/a	n/a	n/a	n/a	n/a	n/a	n/a	n/a	n/a	n/a	n/a	n/a	n/a	n/a	n/a	n/a	n/a	n/a	n/a	n/a	n/a	n/a	n/a	n/a	n/a	n/a	n/a	n/a	n/a	n/a	n/a	n/a	n/a	n/a	n/a	n/a	n/a	n/a	n/a	n/a	n/a	n/a	n/a	n/a	n/a	n/a	n/a	5.0	1.0	5.0	n/a	n/a	n/a	n/a	n/a	n/a	F3_05.jpg	500	0	695890	-1	695890	0	TrialProc1	F3OfficeSmallBlockList	2500	0	693391	0	693391	0	693391	2499	c	1111	694502	93.967
97	2.5	000_R01_VB_allProc	35	1	000_R01_VB_allProc-35-1	60.03	1	-1671241647	8/6/18	8/6/18 17:29	13:29:24	4	n/a	n/a	n/a	n/a	n/a	n/a	n/a	n/a	n/a	n/a	n/a	n/a	4	n/a	n/a	n/a	4	OfficeSmall	8000.0	0.0	699389.0	0.0	699389.0	0.0	699389.0	0.0	F3OfficeSmallBlockProc	n/a	n/a	n/a	4.0	1.0	4.0	n/a	n/a	n/a	n/a	n/a	n/a	Run3BlockList	6	n/a	n/a	n/a	n/a	n/a	n/a	n/a	n/a	n/a	n/a	n/a	n/a	n/a	n/a	n/a	n/a	n/a	n/a	n/a	n/a	n/a	n/a	n/a	n/a	n/a	n/a	n/a	n/a	n/a	n/a	n/a	n/a	n/a	n/a	n/a	n/a	n/a	n/a	n/a	n/a	n/a	n/a	n/a	n/a	n/a	n/a	n/a	n/a	n/a	n/a	n/a	n/a	n/a	n/a	n/a	n/a	n/a	n/a	n/a	n/a	n/a	n/a	n/a	6.0	1.0	6.0	n/a	n/a	n/a	n/a	n/a	n/a	F3_06.jpg	500	0	698889	-1	698889	0	TrialProc1	F3OfficeSmallBlockList	2500	0	696390	0	696390	0	696390	2499	d	904	697294	96.966
108	2.5	000_R01_VB_allProc	35	1	000_R01_VB_allProc-35-1	60.03	1	-1671241647	8/6/18	8/6/18 17:29	13:29:24	4	n/a	n/a	n/a	n/a	n/a	n/a	n/a	n/a	n/a	n/a	n/a	n/a	4	n/a	n/a	n/a	5	HighLargeED	8000.0	0.0	725379.0	0.0	725379.0	0.0	725379.0	0.0	A3HighLargeEDBlockProc	n/a	n/a	n/a	5.0	1.0	5.0	n/a	n/a	n/a	n/a	n/a	n/a	Run3BlockList	1	n/a	n/a	n/a	1.0	1.0	1.0	n/a	n/a	n/a	n/a	n/a	n/a	n/a	n/a	n/a	n/a	n/a	n/a	n/a	n/a	n/a	n/a	n/a	n/a	n/a	n/a	n/a	n/a	n/a	n/a	n/a	n/a	n/a	n/a	n/a	n/a	n/a	n/a	n/a	n/a	n/a	n/a	n/a	n/a	n/a	n/a	n/a	n/a	n/a	n/a	n/a	n/a	n/a	n/a	n/a	n/a	n/a	n/a	n/a	n/a	n/a	n/a	n/a	n/a	n/a	n/a	n/a	n/a	n/a	n/a	n/a	n/a	A3_01.jpg	500	0	709885	-1	709885	0	TrialProc1	A3HighLargeEDBlockList	2500	0	707386	0	707386	-3	707386	2499	n/a	0	0	107.962
111	2.5	000_R01_VB_allProc	35	1	000_R01_VB_allProc-35-1	60.03	1	-1671241647	8/6/18	8/6/18 17:29	13:29:24	4	n/a	n/a	n/a	n/a	n/a	n/a	n/a	n/a	n/a	n/a	n/a	n/a	4	n/a	n/a	n/a	5	HighLargeED	8000.0	0.0	725379.0	0.0	725379.0	0.0	725379.0	0.0	A3HighLargeEDBlockProc	n/a	n/a	n/a	5.0	1.0	5.0	n/a	n/a	n/a	n/a	n/a	n/a	Run3BlockList	2	n/a	n/a	n/a	2.0	1.0	2.0	n/a	n/a	n/a	n/a	n/a	n/a	n/a	n/a	n/a	n/a	n/a	n/a	n/a	n/a	n/a	n/a	n/a	n/a	n/a	n/a	n/a	n/a	n/a	n/a	n/a	n/a	n/a	n/a	n/a	n/a	n/a	n/a	n/a	n/a	n/a	n/a	n/a	n/a	n/a	n/a	n/a	n/a	n/a	n/a	n/a	n/a	n/a	n/a	n/a	n/a	n/a	n/a	n/a	n/a	n/a	n/a	n/a	n/a	n/a	n/a	n/a	n/a	n/a	n/a	n/a	n/a	A3_02.jpg	500	0	712884	-1	712884	0	TrialProc1	A3HighLargeEDBlockList	2500	0	710385	0	710385	0	710385	2499	c	1213	711598	110.961
114	2.5	000_R01_VB_allProc	35	1	000_R01_VB_allProc-35-1	60.03	1	-1671241647	8/6/18	8/6/18 17:29	13:29:24	4	n/a	n/a	n/a	n/a	n/a	n/a	n/a	n/a	n/a	n/a	n/a	n/a	4	n/a	n/a	n/a	5	HighLargeED	8000.0	0.0	725379.0	0.0	725379.0	0.0	725379.0	0.0	A3HighLargeEDBlockProc	n/a	n/a	n/a	5.0	1.0	5.0	n/a	n/a	n/a	n/a	n/a	n/a	Run3BlockList	3	n/a	n/a	n/a	3.0	1.0	3.0	n/a	n/a	n/a	n/a	n/a	n/a	n/a	n/a	n/a	n/a	n/a	n/a	n/a	n/a	n/a	n/a	n/a	n/a	n/a	n/a	n/a	n/a	n/a	n/a	n/a	n/a	n/a	n/a	n/a	n/a	n/a	n/a	n/a	n/a	n/a	n/a	n/a	n/a	n/a	n/a	n/a	n/a	n/a	n/a	n/a	n/a	n/a	n/a	n/a	n/a	n/a	n/a	n/a	n/a	n/a	n/a	n/a	n/a	n/a	n/a	n/a	n/a	n/a	n/a	n/a	n/a	A3_03.jpg	500	0	715883	-1	715883	0	TrialProc1	A3HighLargeEDBlockList	2500	0	713384	0	713384	0	713384	2499	d	1166	714550	113.96
117	2.5	000_R01_VB_allProc	35	1	000_R01_VB_allProc-35-1	60.03	1	-1671241647	8/6/18	8/6/18 17:29	13:29:24	4	n/a	n/a	n/a	n/a	n/a	n/a	n/a	n/a	n/a	n/a	n/a	n/a	4	n/a	n/a	n/a	5	HighLargeED	8000.0	0.0	725379.0	0.0	725379.0	0.0	725379.0	0.0	A3HighLargeEDBlockProc	n/a	n/a	n/a	5.0	1.0	5.0	n/a	n/a	n/a	n/a	n/a	n/a	Run3BlockList	4	n/a	n/a	n/a	4.0	1.0	4.0	n/a	n/a	n/a	n/a	n/a	n/a	n/a	n/a	n/a	n/a	n/a	n/a	n/a	n/a	n/a	n/a	n/a	n/a	n/a	n/a	n/a	n/a	n/a	n/a	n/a	n/a	n/a	n/a	n/a	n/a	n/a	n/a	n/a	n/a	n/a	n/a	n/a	n/a	n/a	n/a	n/a	n/a	n/a	n/a	n/a	n/a	n/a	n/a	n/a	n/a	n/a	n/a	n/a	n/a	n/a	n/a	n/a	n/a	n/a	n/a	n/a	n/a	n/a	n/a	n/a	n/a	A3_04.jpg	500	0	718882	0	718882	0	TrialProc1	A3HighLargeEDBlockList	2500	1	716383	1	716383	-1	716382	2500	d	1376	717758	116.958
120	2.5	000_R01_VB_allProc	35	1	000_R01_VB_allProc-35-1	60.03	1	-1671241647	8/6/18	8/6/18 17:29	13:29:24	4	n/a	n/a	n/a	n/a	n/a	n/a	n/a	n/a	n/a	n/a	n/a	n/a	4	n/a	n/a	n/a	5	HighLargeED	8000.0	0.0	725379.0	0.0	725379.0	0.0	725379.0	0.0	A3HighLargeEDBlockProc	n/a	n/a	n/a	5.0	1.0	5.0	n/a	n/a	n/a	n/a	n/a	n/a	Run3BlockList	5	n/a	n/a	n/a	5.0	1.0	5.0	n/a	n/a	n/a	n/a	n/a	n/a	n/a	n/a	n/a	n/a	n/a	n/a	n/a	n/a	n/a	n/a	n/a	n/a	n/a	n/a	n/a	n/a	n/a	n/a	n/a	n/a	n/a	n/a	n/a	n/a	n/a	n/a	n/a	n/a	n/a	n/a	n/a	n/a	n/a	n/a	n/a	n/a	n/a	n/a	n/a	n/a	n/a	n/a	n/a	n/a	n/a	n/a	n/a	n/a	n/a	n/a	n/a	n/a	n/a	n/a	n/a	n/a	n/a	n/a	n/a	n/a	A3_05.jpg	500	1	721881	-1	721880	0	TrialProc1	A3HighLargeEDBlockList	2500	0	719381	0	719381	-1	719381	2499	c	1041	720422	119.957
123	2.5	000_R01_VB_allProc	35	1	000_R01_VB_allProc-35-1	60.03	1	-1671241647	8/6/18	8/6/18 17:29	13:29:24	4	n/a	n/a	n/a	n/a	n/a	n/a	n/a	n/a	n/a	n/a	n/a	n/a	4	n/a	n/a	n/a	5	HighLargeED	8000.0	0.0	725379.0	0.0	725379.0	0.0	725379.0	0.0	A3HighLargeEDBlockProc	n/a	n/a	n/a	5.0	1.0	5.0	n/a	n/a	n/a	n/a	n/a	n/a	Run3BlockList	6	n/a	n/a	n/a	6.0	1.0	6.0	n/a	n/a	n/a	n/a	n/a	n/a	n/a	n/a	n/a	n/a	n/a	n/a	n/a	n/a	n/a	n/a	n/a	n/a	n/a	n/a	n/a	n/a	n/a	n/a	n/a	n/a	n/a	n/a	n/a	n/a	n/a	n/a	n/a	n/a	n/a	n/a	n/a	n/a	n/a	n/a	n/a	n/a	n/a	n/a	n/a	n/a	n/a	n/a	n/a	n/a	n/a	n/a	n/a	n/a	n/a	n/a	n/a	n/a	n/a	n/a	n/a	n/a	n/a	n/a	n/a	n/a	A3_06.jpg	500	0	724879	-1	724879	0	TrialProc1	A3HighLargeEDBlockList	2500	0	722380	0	722380	0	722380	2499	d	1122	723502	122.956
134	2.5	000_R01_VB_allProc	35	1	000_R01_VB_allProc-35-1	60.03	1	-1671241647	8/6/18	8/6/18 17:29	13:29:24	4	n/a	n/a	n/a	n/a	n/a	n/a	n/a	n/a	n/a	n/a	n/a	n/a	4	n/a	n/a	n/a	6	LowLargeED	8000.0	0.0	751370.0	0.0	751370.0	0.0	751370.0	n/a	C3LowLargeEDBlockProc	n/a	n/a	n/a	6.0	n/a	n/a	n/a	n/a	n/a	n/a	n/a	n/a	Run3BlockList	1	n/a	n/a	n/a	n/a	n/a	n/a	n/a	n/a	n/a	n/a	n/a	n/a	n/a	n/a	n/a	n/a	n/a	n/a	n/a	n/a	n/a	n/a	n/a	n/a	n/a	n/a	n/a	1.0	1.0	1.0	n/a	n/a	n/a	n/a	n/a	n/a	n/a	n/a	n/a	n/a	n/a	n/a	n/a	n/a	n/a	n/a	n/a	n/a	n/a	n/a	n/a	n/a	n/a	n/a	n/a	n/a	n/a	n/a	n/a	n/a	n/a	n/a	n/a	n/a	n/a	n/a	n/a	n/a	n/a	n/a	n/a	n/a	C3_01.jpg	500	0	735875	-1	735875	0	TrialProc1	C3LowLargeEDBlockList	2500	0	733376	0	733376	-3	733376	2499	d	1373	734749	133.952
137	2.5	000_R01_VB_allProc	35	1	000_R01_VB_allProc-35-1	60.03	1	-1671241647	8/6/18	8/6/18 17:29	13:29:24	4	n/a	n/a	n/a	n/a	n/a	n/a	n/a	n/a	n/a	n/a	n/a	n/a	4	n/a	n/a	n/a	6	LowLargeED	8000.0	0.0	751370.0	0.0	751370.0	0.0	751370.0	n/a	C3LowLargeEDBlockProc	n/a	n/a	n/a	6.0	n/a	n/a	n/a	n/a	n/a	n/a	n/a	n/a	Run3BlockList	2	n/a	n/a	n/a	n/a	n/a	n/a	n/a	n/a	n/a	n/a	n/a	n/a	n/a	n/a	n/a	n/a	n/a	n/a	n/a	n/a	n/a	n/a	n/a	n/a	n/a	n/a	n/a	2.0	1.0	2.0	n/a	n/a	n/a	n/a	n/a	n/a	n/a	n/a	n/a	n/a	n/a	n/a	n/a	n/a	n/a	n/a	n/a	n/a	n/a	n/a	n/a	n/a	n/a	n/a	n/a	n/a	n/a	n/a	n/a	n/a	n/a	n/a	n/a	n/a	n/a	n/a	n/a	n/a	n/a	n/a	n/a	n/a	C3_02.jpg	500	0	738874	-1	738874	0	TrialProc1	C3LowLargeEDBlockList	2500	0	736375	0	736375	0	736375	2499	n/a	0	0	136.951
140	2.5	000_R01_VB_allProc	35	1	000_R01_VB_allProc-35-1	60.03	1	-1671241647	8/6/18	8/6/18 17:29	13:29:24	4	n/a	n/a	n/a	n/a	n/a	n/a	n/a	n/a	n/a	n/a	n/a	n/a	4	n/a	n/a	n/a	6	LowLargeED	8000.0	0.0	751370.0	0.0	751370.0	0.0	751370.0	n/a	C3LowLargeEDBlockProc	n/a	n/a	n/a	6.0	n/a	n/a	n/a	n/a	n/a	n/a	n/a	n/a	Run3BlockList	3	n/a	n/a	n/a	n/a	n/a	n/a	n/a	n/a	n/a	n/a	n/a	n/a	n/a	n/a	n/a	n/a	n/a	n/a	n/a	n/a	n/a	n/a	n/a	n/a	n/a	n/a	n/a	3.0	1.0	3.0	n/a	n/a	n/a	n/a	n/a	n/a	n/a	n/a	n/a	n/a	n/a	n/a	n/a	n/a	n/a	n/a	n/a	n/a	n/a	n/a	n/a	n/a	n/a	n/a	n/a	n/a	n/a	n/a	n/a	n/a	n/a	n/a	n/a	n/a	n/a	n/a	n/a	n/a	n/a	n/a	n/a	n/a	C3_03.jpg	500	0	741873	-1	741873	0	TrialProc1	C3LowLargeEDBlockList	2500	0	739374	0	739374	0	739374	2499	n/a	0	0	139.95
143	2.5	000_R01_VB_allProc	35	1	000_R01_VB_allProc-35-1	60.03	1	-1671241647	8/6/18	8/6/18 17:29	13:29:24	4	n/a	n/a	n/a	n/a	n/a	n/a	n/a	n/a	n/a	n/a	n/a	n/a	4	n/a	n/a	n/a	6	LowLargeED	8000.0	0.0	751370.0	0.0	751370.0	0.0	751370.0	n/a	C3LowLargeEDBlockProc	n/a	n/a	n/a	6.0	n/a	n/a	n/a	n/a	n/a	n/a	n/a	n/a	Run3BlockList	4	n/a	n/a	n/a	n/a	n/a	n/a	n/a	n/a	n/a	n/a	n/a	n/a	n/a	n/a	n/a	n/a	n/a	n/a	n/a	n/a	n/a	n/a	n/a	n/a	n/a	n/a	n/a	4.0	1.0	4.0	n/a	n/a	n/a	n/a	n/a	n/a	n/a	n/a	n/a	n/a	n/a	n/a	n/a	n/a	n/a	n/a	n/a	n/a	n/a	n/a	n/a	n/a	n/a	n/a	n/a	n/a	n/a	n/a	n/a	n/a	n/a	n/a	n/a	n/a	n/a	n/a	n/a	n/a	n/a	n/a	n/a	n/a	C3_04.jpg	500	0	744872	-1	744872	0	TrialProc1	C3LowLargeEDBlockList	2500	0	742373	0	742373	0	742373	2499	n/a	0	0	142.949
146	2.5	000_R01_VB_allProc	35	1	000_R01_VB_allProc-35-1	60.03	1	-1671241647	8/6/18	8/6/18 17:29	13:29:24	4	n/a	n/a	n/a	n/a	n/a	n/a	n/a	n/a	n/a	n/a	n/a	n/a	4	n/a	n/a	n/a	6	LowLargeED	8000.0	0.0	751370.0	0.0	751370.0	0.0	751370.0	n/a	C3LowLargeEDBlockProc	n/a	n/a	n/a	6.0	n/a	n/a	n/a	n/a	n/a	n/a	n/a	n/a	Run3BlockList	5	n/a	n/a	n/a	n/a	n/a	n/a	n/a	n/a	n/a	n/a	n/a	n/a	n/a	n/a	n/a	n/a	n/a	n/a	n/a	n/a	n/a	n/a	n/a	n/a	n/a	n/a	n/a	5.0	1.0	5.0	n/a	n/a	n/a	n/a	n/a	n/a	n/a	n/a	n/a	n/a	n/a	n/a	n/a	n/a	n/a	n/a	n/a	n/a	n/a	n/a	n/a	n/a	n/a	n/a	n/a	n/a	n/a	n/a	n/a	n/a	n/a	n/a	n/a	n/a	n/a	n/a	n/a	n/a	n/a	n/a	n/a	n/a	C3_05.jpg	500	0	747871	-1	747871	0	TrialProc1	C3LowLargeEDBlockList	2500	0	745372	0	745372	0	745372	2499	d	913	746285	145.948
149	2.5	000_R01_VB_allProc	35	1	000_R01_VB_allProc-35-1	60.03	1	-1671241647	8/6/18	8/6/18 17:29	13:29:24	4	n/a	n/a	n/a	n/a	n/a	n/a	n/a	n/a	n/a	n/a	n/a	n/a	4	n/a	n/a	n/a	6	LowLargeED	8000.0	0.0	751370.0	0.0	751370.0	0.0	751370.0	n/a	C3LowLargeEDBlockProc	n/a	n/a	n/a	6.0	n/a	n/a	n/a	n/a	n/a	n/a	n/a	n/a	Run3BlockList	6	n/a	n/a	n/a	n/a	n/a	n/a	n/a	n/a	n/a	n/a	n/a	n/a	n/a	n/a	n/a	n/a	n/a	n/a	n/a	n/a	n/a	n/a	n/a	n/a	n/a	n/a	n/a	6.0	1.0	6.0	n/a	n/a	n/a	n/a	n/a	n/a	n/a	n/a	n/a	n/a	n/a	n/a	n/a	n/a	n/a	n/a	n/a	n/a	n/a	n/a	n/a	n/a	n/a	n/a	n/a	n/a	n/a	n/a	n/a	n/a	n/a	n/a	n/a	n/a	n/a	n/a	n/a	n/a	n/a	n/a	n/a	n/a	C3_06.jpg	500	0	750870	-1	750870	0	TrialProc1	C3LowLargeEDBlockList	2500	0	748371	0	748371	0	748371	2499	c	1634	750005	148.947
