onset	duration	experiment_name	sub	ses	datafile_basename	display_refreshrate	group	randomseed	session_date	session_start_date_time_utc	session_time	block	fixation2trs_durationerror	fixation2trs_offsetdelay	fixation2trs_offsettime	fixation2trs_onsetdelay	fixation2trs_onsettime	fixation2trs_onsettoonsettime	goodwork_durationerror	goodwork_finishtime	goodwork_onsetdelay	goodwork_onsettime	goodwork_onsettoonsettime	procedure_block	runlist	runlist_cycle	runlist_sample	running_block	trial	condition	interblockinterval_duration	interblockinterval_durationerror	interblockinterval_finishtime	interblockinterval_offsetdelay	interblockinterval_offsettime	interblockinterval_onsetdelay	interblockinterval_onsettime	interblockinterval_onsettoonsettime	procedure_trial	run2blocklist	run2blocklist_cycle	run2blocklist_sample	run3blocklist	run3blocklist_cycle	run3blocklist_sample	run4blocklist	run4blocklist_cycle	run4blocklist_sample	run5blocklist	run5blocklist_cycle	run5blocklist_sample	running_trial	subtrial	a2highlargeedblocklist	a2highlargeedblocklist_cycle	a2highlargeedblocklist_sample	a3highlargeedblocklist	a3highlargeedblocklist_cycle	a3highlargeedblocklist_sample	a4highlargeedblocklist	a4highlargeedblocklist_cycle	a4highlargeedblocklist_sample	a5highlargeedblocklist	a5highlargeedblocklist_cycle	a5highlargeedblocklist_sample	b2highsmalledblocklist	b2highsmalledblocklist_cycle	b2highsmalledblocklist_sample	b3highsmalledblocklist	b3highsmalledblocklist_cycle	b3highsmalledblocklist_sample	b4highsmalledblocklist	b4highsmalledblocklist_cycle	b4highsmalledblocklist_sample	b5highsmalledblocklist	b5highsmalledblocklist_cycle	b5highsmalledblocklist_sample	c2lowlargeedblocklist	c2lowlargeedblocklist_cycle	c2lowlargeedblocklist_sample	c3lowlargeedblocklist	c3lowlargeedblocklist_cycle	c3lowlargeedblocklist_sample	c4lowlargeedblocklist	c4lowlargeedblocklist_cycle	c4lowlargeedblocklist_sample	c5lowlargeedblocklist	c5lowlargeedblocklist_cycle	c5lowlargeedblocklist_sample	d2highlargeedblocklist	d2highlargeedblocklist_cycle	d2highlargeedblocklist_sample	d3lowsmalledblocklist	d3lowsmalledblocklist_cycle	d3lowsmalledblocklist_sample	d4lowsmalledblocklist	d4lowsmalledblocklist_cycle	d4lowsmalledblocklist_sample	d5lowsmalledblocklist	d5lowsmalledblocklist_cycle	d5lowsmalledblocklist_sample	e2officelargeblocklist	e2officelargeblocklist_cycle	e2officelargeblocklist_sample	e3officelargeblocklist	e3officelargeblocklist_cycle	e3officelargeblocklist_sample	e4officelargeblocklist	e4officelargeblocklist_cycle	e4officelargeblocklist_sample	e5officelargeblocklist	e5officelargeblocklist_cycle	e5officelargeblocklist_sample	f2officesmallblocklist	f2officesmallblocklist_cycle	f2officesmallblocklist_sample	f3officesmallblocklist	f3officesmallblocklist_cycle	f3officesmallblocklist_sample	f4officesmallblocklist	f4officesmallblocklist_cycle	f4officesmallblocklist_sample	f5officesmallblocklist	f5officesmallblocklist_cycle	f5officesmallblocklist_sample	filename	isi_duration	isi_durationerror	isi_finishtime	isi_onsetdelay	isi_onsettime	isi_onsettoonsettime	procedure_subtrial	running_subtrial	stimslide_duration	stimslide_durationerror	stimslide_finishtime	stimslide_offsetdelay	stimslide_offsettime	stimslide_onsetdelay	stimslide_onsettime	stimslide_onsettoonsettime	stimslide_resp	stimslide_rt	stimslide_rttime	onset_unrounded
4	2.5	000_R01_VB_allProc	35	1	000_R01_VB_allProc-35-1	60.03	1	-1671241647	8/6/18	8/6/18 17:29	13:29:24	3	0.0	0.0	414644.0	20.0	414644.0	3998.0	-999999.0	592735.0	-3.0	566588.0	0.0	Run4Proc	3	1.0	3.0	RunList	1	OfficeSmall	8000.0	0.0	436636.0	0.0	436636.0	0.0	436636.0	0.0	F4OfficeSmallBlockProc	n/a	n/a	n/a	n/a	n/a	n/a	1.0	1.0	1.0	n/a	n/a	n/a	Run4BlockList	1	n/a	n/a	n/a	n/a	n/a	n/a	n/a	n/a	n/a	n/a	n/a	n/a	n/a	n/a	n/a	n/a	n/a	n/a	n/a	n/a	n/a	n/a	n/a	n/a	n/a	n/a	n/a	n/a	n/a	n/a	n/a	n/a	n/a	n/a	n/a	n/a	n/a	n/a	n/a	n/a	n/a	n/a	n/a	n/a	n/a	n/a	n/a	n/a	n/a	n/a	n/a	n/a	n/a	n/a	n/a	n/a	n/a	n/a	n/a	n/a	n/a	n/a	n/a	n/a	n/a	n/a	1.0	1.0	1.0	n/a	n/a	n/a	F4_01.jpg	500	1	421142	-1	421141	0	TrialProc1	F4OfficeSmallBlockList	2500	0	418642	0	418642	-2	418642	2499	d	1512	420154	4.0
7	2.5	000_R01_VB_allProc	35	1	000_R01_VB_allProc-35-1	60.03	1	-1671241647	8/6/18	8/6/18 17:29	13:29:24	3	0.0	0.0	414644.0	20.0	414644.0	3998.0	-999999.0	592735.0	-3.0	566588.0	0.0	Run4Proc	3	1.0	3.0	RunList	1	OfficeSmall	8000.0	0.0	436636.0	0.0	436636.0	0.0	436636.0	0.0	F4OfficeSmallBlockProc	n/a	n/a	n/a	n/a	n/a	n/a	1.0	1.0	1.0	n/a	n/a	n/a	Run4BlockList	2	n/a	n/a	n/a	n/a	n/a	n/a	n/a	n/a	n/a	n/a	n/a	n/a	n/a	n/a	n/a	n/a	n/a	n/a	n/a	n/a	n/a	n/a	n/a	n/a	n/a	n/a	n/a	n/a	n/a	n/a	n/a	n/a	n/a	n/a	n/a	n/a	n/a	n/a	n/a	n/a	n/a	n/a	n/a	n/a	n/a	n/a	n/a	n/a	n/a	n/a	n/a	n/a	n/a	n/a	n/a	n/a	n/a	n/a	n/a	n/a	n/a	n/a	n/a	n/a	n/a	n/a	2.0	1.0	2.0	n/a	n/a	n/a	F4_02.jpg	500	0	424140	-1	424140	0	TrialProc1	F4OfficeSmallBlockList	2500	0	421641	0	421641	0	421641	2499	n/a	0	0	6.9990000000000006
10	2.5	000_R01_VB_allProc	35	1	000_R01_VB_allProc-35-1	60.03	1	-1671241647	8/6/18	8/6/18 17:29	13:29:24	3	0.0	0.0	414644.0	20.0	414644.0	3998.0	-999999.0	592735.0	-3.0	566588.0	0.0	Run4Proc	3	1.0	3.0	RunList	1	OfficeSmall	8000.0	0.0	436636.0	0.0	436636.0	0.0	436636.0	0.0	F4OfficeSmallBlockProc	n/a	n/a	n/a	n/a	n/a	n/a	1.0	1.0	1.0	n/a	n/a	n/a	Run4BlockList	3	n/a	n/a	n/a	n/a	n/a	n/a	n/a	n/a	n/a	n/a	n/a	n/a	n/a	n/a	n/a	n/a	n/a	n/a	n/a	n/a	n/a	n/a	n/a	n/a	n/a	n/a	n/a	n/a	n/a	n/a	n/a	n/a	n/a	n/a	n/a	n/a	n/a	n/a	n/a	n/a	n/a	n/a	n/a	n/a	n/a	n/a	n/a	n/a	n/a	n/a	n/a	n/a	n/a	n/a	n/a	n/a	n/a	n/a	n/a	n/a	n/a	n/a	n/a	n/a	n/a	n/a	3.0	1.0	3.0	n/a	n/a	n/a	F4_03.jpg	500	0	427139	-1	427139	0	TrialProc1	F4OfficeSmallBlockList	2500	0	424640	0	424640	0	424640	2499	d	922	425562	9.998000000000001
13	2.5	000_R01_VB_allProc	35	1	000_R01_VB_allProc-35-1	60.03	1	-1671241647	8/6/18	8/6/18 17:29	13:29:24	3	0.0	0.0	414644.0	20.0	414644.0	3998.0	-999999.0	592735.0	-3.0	566588.0	0.0	Run4Proc	3	1.0	3.0	RunList	1	OfficeSmall	8000.0	0.0	436636.0	0.0	436636.0	0.0	436636.0	0.0	F4OfficeSmallBlockProc	n/a	n/a	n/a	n/a	n/a	n/a	1.0	1.0	1.0	n/a	n/a	n/a	Run4BlockList	4	n/a	n/a	n/a	n/a	n/a	n/a	n/a	n/a	n/a	n/a	n/a	n/a	n/a	n/a	n/a	n/a	n/a	n/a	n/a	n/a	n/a	n/a	n/a	n/a	n/a	n/a	n/a	n/a	n/a	n/a	n/a	n/a	n/a	n/a	n/a	n/a	n/a	n/a	n/a	n/a	n/a	n/a	n/a	n/a	n/a	n/a	n/a	n/a	n/a	n/a	n/a	n/a	n/a	n/a	n/a	n/a	n/a	n/a	n/a	n/a	n/a	n/a	n/a	n/a	n/a	n/a	4.0	1.0	4.0	n/a	n/a	n/a	F4_04.jpg	500	0	430138	-1	430138	0	TrialProc1	F4OfficeSmallBlockList	2500	0	427639	0	427639	0	427639	2499	c	1051	428690	12.997
16	2.5	000_R01_VB_allProc	35	1	000_R01_VB_allProc-35-1	60.03	1	-1671241647	8/6/18	8/6/18 17:29	13:29:24	3	0.0	0.0	414644.0	20.0	414644.0	3998.0	-999999.0	592735.0	-3.0	566588.0	0.0	Run4Proc	3	1.0	3.0	RunList	1	OfficeSmall	8000.0	0.0	436636.0	0.0	436636.0	0.0	436636.0	0.0	F4OfficeSmallBlockProc	n/a	n/a	n/a	n/a	n/a	n/a	1.0	1.0	1.0	n/a	n/a	n/a	Run4BlockList	5	n/a	n/a	n/a	n/a	n/a	n/a	n/a	n/a	n/a	n/a	n/a	n/a	n/a	n/a	n/a	n/a	n/a	n/a	n/a	n/a	n/a	n/a	n/a	n/a	n/a	n/a	n/a	n/a	n/a	n/a	n/a	n/a	n/a	n/a	n/a	n/a	n/a	n/a	n/a	n/a	n/a	n/a	n/a	n/a	n/a	n/a	n/a	n/a	n/a	n/a	n/a	n/a	n/a	n/a	n/a	n/a	n/a	n/a	n/a	n/a	n/a	n/a	n/a	n/a	n/a	n/a	5.0	1.0	5.0	n/a	n/a	n/a	F4_05.jpg	500	0	433137	-1	433137	0	TrialProc1	F4OfficeSmallBlockList	2500	0	430638	0	430638	0	430638	2499	d	1036	431674	15.996
19	2.5	000_R01_VB_allProc	35	1	000_R01_VB_allProc-35-1	60.03	1	-1671241647	8/6/18	8/6/18 17:29	13:29:24	3	0.0	0.0	414644.0	20.0	414644.0	3998.0	-999999.0	592735.0	-3.0	566588.0	0.0	Run4Proc	3	1.0	3.0	RunList	1	OfficeSmall	8000.0	0.0	436636.0	0.0	436636.0	0.0	436636.0	0.0	F4OfficeSmallBlockProc	n/a	n/a	n/a	n/a	n/a	n/a	1.0	1.0	1.0	n/a	n/a	n/a	Run4BlockList	6	n/a	n/a	n/a	n/a	n/a	n/a	n/a	n/a	n/a	n/a	n/a	n/a	n/a	n/a	n/a	n/a	n/a	n/a	n/a	n/a	n/a	n/a	n/a	n/a	n/a	n/a	n/a	n/a	n/a	n/a	n/a	n/a	n/a	n/a	n/a	n/a	n/a	n/a	n/a	n/a	n/a	n/a	n/a	n/a	n/a	n/a	n/a	n/a	n/a	n/a	n/a	n/a	n/a	n/a	n/a	n/a	n/a	n/a	n/a	n/a	n/a	n/a	n/a	n/a	n/a	n/a	6.0	1.0	6.0	n/a	n/a	n/a	F4_06.jpg	500	0	436136	-1	436136	0	TrialProc1	F4OfficeSmallBlockList	2500	0	433637	0	433637	0	433637	2499	c	1013	434650	18.994999999999997
30	2.5	000_R01_VB_allProc	35	1	000_R01_VB_allProc-35-1	60.03	1	-1671241647	8/6/18	8/6/18 17:29	13:29:24	3	0.0	0.0	414644.0	20.0	414644.0	3998.0	-999999.0	592735.0	-3.0	566588.0	0.0	Run4Proc	3	1.0	3.0	RunList	2	HighSmallED	8000.0	0.0	462626.0	0.0	462626.0	0.0	462626.0	0.0	B4HighSmallEDBlockProc	n/a	n/a	n/a	n/a	n/a	n/a	2.0	1.0	2.0	n/a	n/a	n/a	Run4BlockList	1	n/a	n/a	n/a	n/a	n/a	n/a	n/a	n/a	n/a	n/a	n/a	n/a	n/a	n/a	n/a	n/a	n/a	n/a	1.0	1.0	1.0	n/a	n/a	n/a	n/a	n/a	n/a	n/a	n/a	n/a	n/a	n/a	n/a	n/a	n/a	n/a	n/a	n/a	n/a	n/a	n/a	n/a	n/a	n/a	n/a	n/a	n/a	n/a	n/a	n/a	n/a	n/a	n/a	n/a	n/a	n/a	n/a	n/a	n/a	n/a	n/a	n/a	n/a	n/a	n/a	n/a	n/a	n/a	n/a	n/a	n/a	n/a	B4_01.jpg	500	0	447132	-1	447132	0	TrialProc1	B4HighSmallEDBlockList	2500	0	444633	0	444633	-3	444633	2499	d	1361	445994	29.991
33	2.5	000_R01_VB_allProc	35	1	000_R01_VB_allProc-35-1	60.03	1	-1671241647	8/6/18	8/6/18 17:29	13:29:24	3	0.0	0.0	414644.0	20.0	414644.0	3998.0	-999999.0	592735.0	-3.0	566588.0	0.0	Run4Proc	3	1.0	3.0	RunList	2	HighSmallED	8000.0	0.0	462626.0	0.0	462626.0	0.0	462626.0	0.0	B4HighSmallEDBlockProc	n/a	n/a	n/a	n/a	n/a	n/a	2.0	1.0	2.0	n/a	n/a	n/a	Run4BlockList	2	n/a	n/a	n/a	n/a	n/a	n/a	n/a	n/a	n/a	n/a	n/a	n/a	n/a	n/a	n/a	n/a	n/a	n/a	2.0	1.0	2.0	n/a	n/a	n/a	n/a	n/a	n/a	n/a	n/a	n/a	n/a	n/a	n/a	n/a	n/a	n/a	n/a	n/a	n/a	n/a	n/a	n/a	n/a	n/a	n/a	n/a	n/a	n/a	n/a	n/a	n/a	n/a	n/a	n/a	n/a	n/a	n/a	n/a	n/a	n/a	n/a	n/a	n/a	n/a	n/a	n/a	n/a	n/a	n/a	n/a	n/a	n/a	B4_02.jpg	500	0	450131	-1	450131	0	TrialProc1	B4HighSmallEDBlockList	2500	0	447632	0	447632	0	447632	2499	n/a	0	0	32.989999999999995
36	2.5	000_R01_VB_allProc	35	1	000_R01_VB_allProc-35-1	60.03	1	-1671241647	8/6/18	8/6/18 17:29	13:29:24	3	0.0	0.0	414644.0	20.0	414644.0	3998.0	-999999.0	592735.0	-3.0	566588.0	0.0	Run4Proc	3	1.0	3.0	RunList	2	HighSmallED	8000.0	0.0	462626.0	0.0	462626.0	0.0	462626.0	0.0	B4HighSmallEDBlockProc	n/a	n/a	n/a	n/a	n/a	n/a	2.0	1.0	2.0	n/a	n/a	n/a	Run4BlockList	3	n/a	n/a	n/a	n/a	n/a	n/a	n/a	n/a	n/a	n/a	n/a	n/a	n/a	n/a	n/a	n/a	n/a	n/a	3.0	1.0	3.0	n/a	n/a	n/a	n/a	n/a	n/a	n/a	n/a	n/a	n/a	n/a	n/a	n/a	n/a	n/a	n/a	n/a	n/a	n/a	n/a	n/a	n/a	n/a	n/a	n/a	n/a	n/a	n/a	n/a	n/a	n/a	n/a	n/a	n/a	n/a	n/a	n/a	n/a	n/a	n/a	n/a	n/a	n/a	n/a	n/a	n/a	n/a	n/a	n/a	n/a	n/a	B4_03.jpg	500	0	453130	-1	453130	0	TrialProc1	B4HighSmallEDBlockList	2500	0	450631	0	450631	0	450631	2499	n/a	0	0	35.989000000000004
39	2.5	000_R01_VB_allProc	35	1	000_R01_VB_allProc-35-1	60.03	1	-1671241647	8/6/18	8/6/18 17:29	13:29:24	3	0.0	0.0	414644.0	20.0	414644.0	3998.0	-999999.0	592735.0	-3.0	566588.0	0.0	Run4Proc	3	1.0	3.0	RunList	2	HighSmallED	8000.0	0.0	462626.0	0.0	462626.0	0.0	462626.0	0.0	B4HighSmallEDBlockProc	n/a	n/a	n/a	n/a	n/a	n/a	2.0	1.0	2.0	n/a	n/a	n/a	Run4BlockList	4	n/a	n/a	n/a	n/a	n/a	n/a	n/a	n/a	n/a	n/a	n/a	n/a	n/a	n/a	n/a	n/a	n/a	n/a	4.0	1.0	4.0	n/a	n/a	n/a	n/a	n/a	n/a	n/a	n/a	n/a	n/a	n/a	n/a	n/a	n/a	n/a	n/a	n/a	n/a	n/a	n/a	n/a	n/a	n/a	n/a	n/a	n/a	n/a	n/a	n/a	n/a	n/a	n/a	n/a	n/a	n/a	n/a	n/a	n/a	n/a	n/a	n/a	n/a	n/a	n/a	n/a	n/a	n/a	n/a	n/a	n/a	n/a	B4_04.jpg	500	0	456129	0	456129	0	TrialProc1	B4HighSmallEDBlockList	2500	1	453630	1	453630	-1	453629	2500	n/a	0	0	38.987
42	2.5	000_R01_VB_allProc	35	1	000_R01_VB_allProc-35-1	60.03	1	-1671241647	8/6/18	8/6/18 17:29	13:29:24	3	0.0	0.0	414644.0	20.0	414644.0	3998.0	-999999.0	592735.0	-3.0	566588.0	0.0	Run4Proc	3	1.0	3.0	RunList	2	HighSmallED	8000.0	0.0	462626.0	0.0	462626.0	0.0	462626.0	0.0	B4HighSmallEDBlockProc	n/a	n/a	n/a	n/a	n/a	n/a	2.0	1.0	2.0	n/a	n/a	n/a	Run4BlockList	5	n/a	n/a	n/a	n/a	n/a	n/a	n/a	n/a	n/a	n/a	n/a	n/a	n/a	n/a	n/a	n/a	n/a	n/a	5.0	1.0	5.0	n/a	n/a	n/a	n/a	n/a	n/a	n/a	n/a	n/a	n/a	n/a	n/a	n/a	n/a	n/a	n/a	n/a	n/a	n/a	n/a	n/a	n/a	n/a	n/a	n/a	n/a	n/a	n/a	n/a	n/a	n/a	n/a	n/a	n/a	n/a	n/a	n/a	n/a	n/a	n/a	n/a	n/a	n/a	n/a	n/a	n/a	n/a	n/a	n/a	n/a	n/a	B4_05.jpg	500	1	459128	-1	459127	0	TrialProc1	B4HighSmallEDBlockList	2500	0	456628	0	456628	-1	456628	2499	n/a	0	0	41.986
45	2.5	000_R01_VB_allProc	35	1	000_R01_VB_allProc-35-1	60.03	1	-1671241647	8/6/18	8/6/18 17:29	13:29:24	3	0.0	0.0	414644.0	20.0	414644.0	3998.0	-999999.0	592735.0	-3.0	566588.0	0.0	Run4Proc	3	1.0	3.0	RunList	2	HighSmallED	8000.0	0.0	462626.0	0.0	462626.0	0.0	462626.0	0.0	B4HighSmallEDBlockProc	n/a	n/a	n/a	n/a	n/a	n/a	2.0	1.0	2.0	n/a	n/a	n/a	Run4BlockList	6	n/a	n/a	n/a	n/a	n/a	n/a	n/a	n/a	n/a	n/a	n/a	n/a	n/a	n/a	n/a	n/a	n/a	n/a	6.0	1.0	6.0	n/a	n/a	n/a	n/a	n/a	n/a	n/a	n/a	n/a	n/a	n/a	n/a	n/a	n/a	n/a	n/a	n/a	n/a	n/a	n/a	n/a	n/a	n/a	n/a	n/a	n/a	n/a	n/a	n/a	n/a	n/a	n/a	n/a	n/a	n/a	n/a	n/a	n/a	n/a	n/a	n/a	n/a	n/a	n/a	n/a	n/a	n/a	n/a	n/a	n/a	n/a	B4_06.jpg	500	1	462127	-1	462126	0	TrialProc1	B4HighSmallEDBlockList	2500	0	459627	0	459627	0	459627	2499	d	1783	461410	44.985
56	2.5	000_R01_VB_allProc	35	1	000_R01_VB_allProc-35-1	60.03	1	-1671241647	8/6/18	8/6/18 17:29	13:29:24	3	0.0	0.0	414644.0	20.0	414644.0	3998.0	-999999.0	592735.0	-3.0	566588.0	0.0	Run4Proc	3	1.0	3.0	RunList	3	LowLargeED	8000.0	0.0	488617.0	0.0	488617.0	0.0	488617.0	0.0	C4LowLargeEDBlockProc	n/a	n/a	n/a	n/a	n/a	n/a	3.0	1.0	3.0	n/a	n/a	n/a	Run4BlockList	1	n/a	n/a	n/a	n/a	n/a	n/a	n/a	n/a	n/a	n/a	n/a	n/a	n/a	n/a	n/a	n/a	n/a	n/a	n/a	n/a	n/a	n/a	n/a	n/a	n/a	n/a	n/a	n/a	n/a	n/a	1.0	1.0	1.0	n/a	n/a	n/a	n/a	n/a	n/a	n/a	n/a	n/a	n/a	n/a	n/a	n/a	n/a	n/a	n/a	n/a	n/a	n/a	n/a	n/a	n/a	n/a	n/a	n/a	n/a	n/a	n/a	n/a	n/a	n/a	n/a	n/a	n/a	n/a	n/a	n/a	n/a	n/a	C4_01.jpg	500	0	473122	-1	473122	0	TrialProc1	C4LowLargeEDBlockList	2500	0	470623	0	470623	-3	470623	2499	n/a	0	0	55.981
59	2.5	000_R01_VB_allProc	35	1	000_R01_VB_allProc-35-1	60.03	1	-1671241647	8/6/18	8/6/18 17:29	13:29:24	3	0.0	0.0	414644.0	20.0	414644.0	3998.0	-999999.0	592735.0	-3.0	566588.0	0.0	Run4Proc	3	1.0	3.0	RunList	3	LowLargeED	8000.0	0.0	488617.0	0.0	488617.0	0.0	488617.0	0.0	C4LowLargeEDBlockProc	n/a	n/a	n/a	n/a	n/a	n/a	3.0	1.0	3.0	n/a	n/a	n/a	Run4BlockList	2	n/a	n/a	n/a	n/a	n/a	n/a	n/a	n/a	n/a	n/a	n/a	n/a	n/a	n/a	n/a	n/a	n/a	n/a	n/a	n/a	n/a	n/a	n/a	n/a	n/a	n/a	n/a	n/a	n/a	n/a	2.0	1.0	2.0	n/a	n/a	n/a	n/a	n/a	n/a	n/a	n/a	n/a	n/a	n/a	n/a	n/a	n/a	n/a	n/a	n/a	n/a	n/a	n/a	n/a	n/a	n/a	n/a	n/a	n/a	n/a	n/a	n/a	n/a	n/a	n/a	n/a	n/a	n/a	n/a	n/a	n/a	n/a	C4_02.jpg	500	0	476121	-1	476121	0	TrialProc1	C4LowLargeEDBlockList	2500	0	473622	0	473622	0	473622	2499	d	1659	475281	58.98
62	2.5	000_R01_VB_allProc	35	1	000_R01_VB_allProc-35-1	60.03	1	-1671241647	8/6/18	8/6/18 17:29	13:29:24	3	0.0	0.0	414644.0	20.0	414644.0	3998.0	-999999.0	592735.0	-3.0	566588.0	0.0	Run4Proc	3	1.0	3.0	RunList	3	LowLargeED	8000.0	0.0	488617.0	0.0	488617.0	0.0	488617.0	0.0	C4LowLargeEDBlockProc	n/a	n/a	n/a	n/a	n/a	n/a	3.0	1.0	3.0	n/a	n/a	n/a	Run4BlockList	3	n/a	n/a	n/a	n/a	n/a	n/a	n/a	n/a	n/a	n/a	n/a	n/a	n/a	n/a	n/a	n/a	n/a	n/a	n/a	n/a	n/a	n/a	n/a	n/a	n/a	n/a	n/a	n/a	n/a	n/a	3.0	1.0	3.0	n/a	n/a	n/a	n/a	n/a	n/a	n/a	n/a	n/a	n/a	n/a	n/a	n/a	n/a	n/a	n/a	n/a	n/a	n/a	n/a	n/a	n/a	n/a	n/a	n/a	n/a	n/a	n/a	n/a	n/a	n/a	n/a	n/a	n/a	n/a	n/a	n/a	n/a	n/a	C4_03.jpg	500	0	479120	-1	479120	0	TrialProc1	C4LowLargeEDBlockList	2500	0	476621	0	476621	0	476621	2499	c	1068	477689	61.979
65	2.5	000_R01_VB_allProc	35	1	000_R01_VB_allProc-35-1	60.03	1	-1671241647	8/6/18	8/6/18 17:29	13:29:24	3	0.0	0.0	414644.0	20.0	414644.0	3998.0	-999999.0	592735.0	-3.0	566588.0	0.0	Run4Proc	3	1.0	3.0	RunList	3	LowLargeED	8000.0	0.0	488617.0	0.0	488617.0	0.0	488617.0	0.0	C4LowLargeEDBlockProc	n/a	n/a	n/a	n/a	n/a	n/a	3.0	1.0	3.0	n/a	n/a	n/a	Run4BlockList	4	n/a	n/a	n/a	n/a	n/a	n/a	n/a	n/a	n/a	n/a	n/a	n/a	n/a	n/a	n/a	n/a	n/a	n/a	n/a	n/a	n/a	n/a	n/a	n/a	n/a	n/a	n/a	n/a	n/a	n/a	4.0	1.0	4.0	n/a	n/a	n/a	n/a	n/a	n/a	n/a	n/a	n/a	n/a	n/a	n/a	n/a	n/a	n/a	n/a	n/a	n/a	n/a	n/a	n/a	n/a	n/a	n/a	n/a	n/a	n/a	n/a	n/a	n/a	n/a	n/a	n/a	n/a	n/a	n/a	n/a	n/a	n/a	C4_04.jpg	500	0	482119	-1	482119	0	TrialProc1	C4LowLargeEDBlockList	2500	0	479620	0	479620	0	479620	2499	n/a	0	0	64.97800000000001
68	2.5	000_R01_VB_allProc	35	1	000_R01_VB_allProc-35-1	60.03	1	-1671241647	8/6/18	8/6/18 17:29	13:29:24	3	0.0	0.0	414644.0	20.0	414644.0	3998.0	-999999.0	592735.0	-3.0	566588.0	0.0	Run4Proc	3	1.0	3.0	RunList	3	LowLargeED	8000.0	0.0	488617.0	0.0	488617.0	0.0	488617.0	0.0	C4LowLargeEDBlockProc	n/a	n/a	n/a	n/a	n/a	n/a	3.0	1.0	3.0	n/a	n/a	n/a	Run4BlockList	5	n/a	n/a	n/a	n/a	n/a	n/a	n/a	n/a	n/a	n/a	n/a	n/a	n/a	n/a	n/a	n/a	n/a	n/a	n/a	n/a	n/a	n/a	n/a	n/a	n/a	n/a	n/a	n/a	n/a	n/a	5.0	1.0	5.0	n/a	n/a	n/a	n/a	n/a	n/a	n/a	n/a	n/a	n/a	n/a	n/a	n/a	n/a	n/a	n/a	n/a	n/a	n/a	n/a	n/a	n/a	n/a	n/a	n/a	n/a	n/a	n/a	n/a	n/a	n/a	n/a	n/a	n/a	n/a	n/a	n/a	n/a	n/a	C4_05.jpg	500	0	485118	-1	485118	0	TrialProc1	C4LowLargeEDBlockList	2500	0	482619	0	482619	0	482619	2499	d	1366	483985	67.977
71	2.5	000_R01_VB_allProc	35	1	000_R01_VB_allProc-35-1	60.03	1	-1671241647	8/6/18	8/6/18 17:29	13:29:24	3	0.0	0.0	414644.0	20.0	414644.0	3998.0	-999999.0	592735.0	-3.0	566588.0	0.0	Run4Proc	3	1.0	3.0	RunList	3	LowLargeED	8000.0	0.0	488617.0	0.0	488617.0	0.0	488617.0	0.0	C4LowLargeEDBlockProc	n/a	n/a	n/a	n/a	n/a	n/a	3.0	1.0	3.0	n/a	n/a	n/a	Run4BlockList	6	n/a	n/a	n/a	n/a	n/a	n/a	n/a	n/a	n/a	n/a	n/a	n/a	n/a	n/a	n/a	n/a	n/a	n/a	n/a	n/a	n/a	n/a	n/a	n/a	n/a	n/a	n/a	n/a	n/a	n/a	6.0	1.0	6.0	n/a	n/a	n/a	n/a	n/a	n/a	n/a	n/a	n/a	n/a	n/a	n/a	n/a	n/a	n/a	n/a	n/a	n/a	n/a	n/a	n/a	n/a	n/a	n/a	n/a	n/a	n/a	n/a	n/a	n/a	n/a	n/a	n/a	n/a	n/a	n/a	n/a	n/a	n/a	C4_06.jpg	500	0	488117	-1	488117	0	TrialProc1	C4LowLargeEDBlockList	2500	0	485618	0	485618	0	485618	2499	c	1199	486817	70.976
82	2.5	000_R01_VB_allProc	35	1	000_R01_VB_allProc-35-1	60.03	1	-1671241647	8/6/18	8/6/18 17:29	13:29:24	3	0.0	0.0	414644.0	20.0	414644.0	3998.0	-999999.0	592735.0	-3.0	566588.0	0.0	Run4Proc	3	1.0	3.0	RunList	4	OfficeLarge	8000.0	0.0	514607.0	0.0	514607.0	0.0	514607.0	0.0	E4OfficeLargeBlockProc	n/a	n/a	n/a	n/a	n/a	n/a	4.0	1.0	4.0	n/a	n/a	n/a	Run4BlockList	1	n/a	n/a	n/a	n/a	n/a	n/a	n/a	n/a	n/a	n/a	n/a	n/a	n/a	n/a	n/a	n/a	n/a	n/a	n/a	n/a	n/a	n/a	n/a	n/a	n/a	n/a	n/a	n/a	n/a	n/a	n/a	n/a	n/a	n/a	n/a	n/a	n/a	n/a	n/a	n/a	n/a	n/a	n/a	n/a	n/a	n/a	n/a	n/a	n/a	n/a	n/a	n/a	n/a	n/a	1.0	1.0	1.0	n/a	n/a	n/a	n/a	n/a	n/a	n/a	n/a	n/a	n/a	n/a	n/a	n/a	n/a	n/a	E4_01.jpg	500	0	499113	-1	499113	0	TrialProc1	E4OfficeLargeBlockList	2500	0	496614	0	496614	-3	496614	2499	c	1355	497969	81.972
85	2.5	000_R01_VB_allProc	35	1	000_R01_VB_allProc-35-1	60.03	1	-1671241647	8/6/18	8/6/18 17:29	13:29:24	3	0.0	0.0	414644.0	20.0	414644.0	3998.0	-999999.0	592735.0	-3.0	566588.0	0.0	Run4Proc	3	1.0	3.0	RunList	4	OfficeLarge	8000.0	0.0	514607.0	0.0	514607.0	0.0	514607.0	0.0	E4OfficeLargeBlockProc	n/a	n/a	n/a	n/a	n/a	n/a	4.0	1.0	4.0	n/a	n/a	n/a	Run4BlockList	2	n/a	n/a	n/a	n/a	n/a	n/a	n/a	n/a	n/a	n/a	n/a	n/a	n/a	n/a	n/a	n/a	n/a	n/a	n/a	n/a	n/a	n/a	n/a	n/a	n/a	n/a	n/a	n/a	n/a	n/a	n/a	n/a	n/a	n/a	n/a	n/a	n/a	n/a	n/a	n/a	n/a	n/a	n/a	n/a	n/a	n/a	n/a	n/a	n/a	n/a	n/a	n/a	n/a	n/a	2.0	1.0	2.0	n/a	n/a	n/a	n/a	n/a	n/a	n/a	n/a	n/a	n/a	n/a	n/a	n/a	n/a	n/a	E4_02.jpg	500	0	502112	0	502112	0	TrialProc1	E4OfficeLargeBlockList	2500	1	499613	1	499613	-1	499612	2500	d	1477	501089	84.97
88	2.5	000_R01_VB_allProc	35	1	000_R01_VB_allProc-35-1	60.03	1	-1671241647	8/6/18	8/6/18 17:29	13:29:24	3	0.0	0.0	414644.0	20.0	414644.0	3998.0	-999999.0	592735.0	-3.0	566588.0	0.0	Run4Proc	3	1.0	3.0	RunList	4	OfficeLarge	8000.0	0.0	514607.0	0.0	514607.0	0.0	514607.0	0.0	E4OfficeLargeBlockProc	n/a	n/a	n/a	n/a	n/a	n/a	4.0	1.0	4.0	n/a	n/a	n/a	Run4BlockList	3	n/a	n/a	n/a	n/a	n/a	n/a	n/a	n/a	n/a	n/a	n/a	n/a	n/a	n/a	n/a	n/a	n/a	n/a	n/a	n/a	n/a	n/a	n/a	n/a	n/a	n/a	n/a	n/a	n/a	n/a	n/a	n/a	n/a	n/a	n/a	n/a	n/a	n/a	n/a	n/a	n/a	n/a	n/a	n/a	n/a	n/a	n/a	n/a	n/a	n/a	n/a	n/a	n/a	n/a	3.0	1.0	3.0	n/a	n/a	n/a	n/a	n/a	n/a	n/a	n/a	n/a	n/a	n/a	n/a	n/a	n/a	n/a	E4_03.jpg	500	1	505111	-1	505110	0	TrialProc1	E4OfficeLargeBlockList	2500	0	502611	0	502611	-1	502611	2499	c	838	503449	87.969
91	2.5	000_R01_VB_allProc	35	1	000_R01_VB_allProc-35-1	60.03	1	-1671241647	8/6/18	8/6/18 17:29	13:29:24	3	0.0	0.0	414644.0	20.0	414644.0	3998.0	-999999.0	592735.0	-3.0	566588.0	0.0	Run4Proc	3	1.0	3.0	RunList	4	OfficeLarge	8000.0	0.0	514607.0	0.0	514607.0	0.0	514607.0	0.0	E4OfficeLargeBlockProc	n/a	n/a	n/a	n/a	n/a	n/a	4.0	1.0	4.0	n/a	n/a	n/a	Run4BlockList	4	n/a	n/a	n/a	n/a	n/a	n/a	n/a	n/a	n/a	n/a	n/a	n/a	n/a	n/a	n/a	n/a	n/a	n/a	n/a	n/a	n/a	n/a	n/a	n/a	n/a	n/a	n/a	n/a	n/a	n/a	n/a	n/a	n/a	n/a	n/a	n/a	n/a	n/a	n/a	n/a	n/a	n/a	n/a	n/a	n/a	n/a	n/a	n/a	n/a	n/a	n/a	n/a	n/a	n/a	4.0	1.0	4.0	n/a	n/a	n/a	n/a	n/a	n/a	n/a	n/a	n/a	n/a	n/a	n/a	n/a	n/a	n/a	E4_04.jpg	500	0	508109	-1	508109	0	TrialProc1	E4OfficeLargeBlockList	2500	0	505610	0	505610	0	505610	2499	n/a	0	0	90.968
94	2.5	000_R01_VB_allProc	35	1	000_R01_VB_allProc-35-1	60.03	1	-1671241647	8/6/18	8/6/18 17:29	13:29:24	3	0.0	0.0	414644.0	20.0	414644.0	3998.0	-999999.0	592735.0	-3.0	566588.0	0.0	Run4Proc	3	1.0	3.0	RunList	4	OfficeLarge	8000.0	0.0	514607.0	0.0	514607.0	0.0	514607.0	0.0	E4OfficeLargeBlockProc	n/a	n/a	n/a	n/a	n/a	n/a	4.0	1.0	4.0	n/a	n/a	n/a	Run4BlockList	5	n/a	n/a	n/a	n/a	n/a	n/a	n/a	n/a	n/a	n/a	n/a	n/a	n/a	n/a	n/a	n/a	n/a	n/a	n/a	n/a	n/a	n/a	n/a	n/a	n/a	n/a	n/a	n/a	n/a	n/a	n/a	n/a	n/a	n/a	n/a	n/a	n/a	n/a	n/a	n/a	n/a	n/a	n/a	n/a	n/a	n/a	n/a	n/a	n/a	n/a	n/a	n/a	n/a	n/a	5.0	1.0	5.0	n/a	n/a	n/a	n/a	n/a	n/a	n/a	n/a	n/a	n/a	n/a	n/a	n/a	n/a	n/a	E4_05.jpg	500	0	511108	-1	511108	0	TrialProc1	E4OfficeLargeBlockList	2500	0	508609	0	508609	0	508609	2499	n/a	0	0	93.967
97	2.5	000_R01_VB_allProc	35	1	000_R01_VB_allProc-35-1	60.03	1	-1671241647	8/6/18	8/6/18 17:29	13:29:24	3	0.0	0.0	414644.0	20.0	414644.0	3998.0	-999999.0	592735.0	-3.0	566588.0	0.0	Run4Proc	3	1.0	3.0	RunList	4	OfficeLarge	8000.0	0.0	514607.0	0.0	514607.0	0.0	514607.0	0.0	E4OfficeLargeBlockProc	n/a	n/a	n/a	n/a	n/a	n/a	4.0	1.0	4.0	n/a	n/a	n/a	Run4BlockList	6	n/a	n/a	n/a	n/a	n/a	n/a	n/a	n/a	n/a	n/a	n/a	n/a	n/a	n/a	n/a	n/a	n/a	n/a	n/a	n/a	n/a	n/a	n/a	n/a	n/a	n/a	n/a	n/a	n/a	n/a	n/a	n/a	n/a	n/a	n/a	n/a	n/a	n/a	n/a	n/a	n/a	n/a	n/a	n/a	n/a	n/a	n/a	n/a	n/a	n/a	n/a	n/a	n/a	n/a	6.0	1.0	6.0	n/a	n/a	n/a	n/a	n/a	n/a	n/a	n/a	n/a	n/a	n/a	n/a	n/a	n/a	n/a	E4_06.jpg	500	0	514107	-1	514107	0	TrialProc1	E4OfficeLargeBlockList	2500	0	511608	0	511608	0	511608	2499	n/a	0	0	96.966
108	2.5	000_R01_VB_allProc	35	1	000_R01_VB_allProc-35-1	60.03	1	-1671241647	8/6/18	8/6/18 17:29	13:29:24	3	0.0	0.0	414644.0	20.0	414644.0	3998.0	-999999.0	592735.0	-3.0	566588.0	0.0	Run4Proc	3	1.0	3.0	RunList	5	LowSmallED	n/a	n/a	n/a	n/a	n/a	n/a	n/a	n/a	D4LowSmallEDBlockProc	n/a	n/a	n/a	n/a	n/a	n/a	5.0	1.0	5.0	n/a	n/a	n/a	Run4BlockList	1	n/a	n/a	n/a	n/a	n/a	n/a	n/a	n/a	n/a	n/a	n/a	n/a	n/a	n/a	n/a	n/a	n/a	n/a	n/a	n/a	n/a	n/a	n/a	n/a	n/a	n/a	n/a	n/a	n/a	n/a	n/a	n/a	n/a	n/a	n/a	n/a	n/a	n/a	n/a	n/a	n/a	n/a	1.0	1.0	1.0	n/a	n/a	n/a	n/a	n/a	n/a	n/a	n/a	n/a	n/a	n/a	n/a	n/a	n/a	n/a	n/a	n/a	n/a	n/a	n/a	n/a	n/a	n/a	n/a	n/a	n/a	n/a	D4_01.jpg	500	0	525103	-1	525103	0	TrialProc1	D4LowSmallEDBlockList	2500	0	522604	0	522604	-3	522604	2499	c	1813	524417	107.962
111	2.5	000_R01_VB_allProc	35	1	000_R01_VB_allProc-35-1	60.03	1	-1671241647	8/6/18	8/6/18 17:29	13:29:24	3	0.0	0.0	414644.0	20.0	414644.0	3998.0	-999999.0	592735.0	-3.0	566588.0	0.0	Run4Proc	3	1.0	3.0	RunList	5	LowSmallED	n/a	n/a	n/a	n/a	n/a	n/a	n/a	n/a	D4LowSmallEDBlockProc	n/a	n/a	n/a	n/a	n/a	n/a	5.0	1.0	5.0	n/a	n/a	n/a	Run4BlockList	2	n/a	n/a	n/a	n/a	n/a	n/a	n/a	n/a	n/a	n/a	n/a	n/a	n/a	n/a	n/a	n/a	n/a	n/a	n/a	n/a	n/a	n/a	n/a	n/a	n/a	n/a	n/a	n/a	n/a	n/a	n/a	n/a	n/a	n/a	n/a	n/a	n/a	n/a	n/a	n/a	n/a	n/a	2.0	1.0	2.0	n/a	n/a	n/a	n/a	n/a	n/a	n/a	n/a	n/a	n/a	n/a	n/a	n/a	n/a	n/a	n/a	n/a	n/a	n/a	n/a	n/a	n/a	n/a	n/a	n/a	n/a	n/a	D4_02.jpg	500	0	528102	-1	528102	0	TrialProc1	D4LowSmallEDBlockList	2500	0	525603	0	525603	0	525603	2499	c	1294	526897	110.961
114	2.5	000_R01_VB_allProc	35	1	000_R01_VB_allProc-35-1	60.03	1	-1671241647	8/6/18	8/6/18 17:29	13:29:24	3	0.0	0.0	414644.0	20.0	414644.0	3998.0	-999999.0	592735.0	-3.0	566588.0	0.0	Run4Proc	3	1.0	3.0	RunList	5	LowSmallED	n/a	n/a	n/a	n/a	n/a	n/a	n/a	n/a	D4LowSmallEDBlockProc	n/a	n/a	n/a	n/a	n/a	n/a	5.0	1.0	5.0	n/a	n/a	n/a	Run4BlockList	3	n/a	n/a	n/a	n/a	n/a	n/a	n/a	n/a	n/a	n/a	n/a	n/a	n/a	n/a	n/a	n/a	n/a	n/a	n/a	n/a	n/a	n/a	n/a	n/a	n/a	n/a	n/a	n/a	n/a	n/a	n/a	n/a	n/a	n/a	n/a	n/a	n/a	n/a	n/a	n/a	n/a	n/a	3.0	1.0	3.0	n/a	n/a	n/a	n/a	n/a	n/a	n/a	n/a	n/a	n/a	n/a	n/a	n/a	n/a	n/a	n/a	n/a	n/a	n/a	n/a	n/a	n/a	n/a	n/a	n/a	n/a	n/a	D4_03.jpg	500	0	531101	-1	531101	0	TrialProc1	D4LowSmallEDBlockList	2500	0	528602	0	528602	0	528602	2499	c	1159	529761	113.96
117	2.5	000_R01_VB_allProc	35	1	000_R01_VB_allProc-35-1	60.03	1	-1671241647	8/6/18	8/6/18 17:29	13:29:24	3	0.0	0.0	414644.0	20.0	414644.0	3998.0	-999999.0	592735.0	-3.0	566588.0	0.0	Run4Proc	3	1.0	3.0	RunList	5	LowSmallED	n/a	n/a	n/a	n/a	n/a	n/a	n/a	n/a	D4LowSmallEDBlockProc	n/a	n/a	n/a	n/a	n/a	n/a	5.0	1.0	5.0	n/a	n/a	n/a	Run4BlockList	4	n/a	n/a	n/a	n/a	n/a	n/a	n/a	n/a	n/a	n/a	n/a	n/a	n/a	n/a	n/a	n/a	n/a	n/a	n/a	n/a	n/a	n/a	n/a	n/a	n/a	n/a	n/a	n/a	n/a	n/a	n/a	n/a	n/a	n/a	n/a	n/a	n/a	n/a	n/a	n/a	n/a	n/a	4.0	1.0	4.0	n/a	n/a	n/a	n/a	n/a	n/a	n/a	n/a	n/a	n/a	n/a	n/a	n/a	n/a	n/a	n/a	n/a	n/a	n/a	n/a	n/a	n/a	n/a	n/a	n/a	n/a	n/a	D4_04.jpg	500	0	534100	-1	534100	0	TrialProc1	D4LowSmallEDBlockList	2500	0	531601	0	531601	0	531601	2499	d	1064	532665	116.959
120	2.5	000_R01_VB_allProc	35	1	000_R01_VB_allProc-35-1	60.03	1	-1671241647	8/6/18	8/6/18 17:29	13:29:24	3	0.0	0.0	414644.0	20.0	414644.0	3998.0	-999999.0	592735.0	-3.0	566588.0	0.0	Run4Proc	3	1.0	3.0	RunList	5	LowSmallED	n/a	n/a	n/a	n/a	n/a	n/a	n/a	n/a	D4LowSmallEDBlockProc	n/a	n/a	n/a	n/a	n/a	n/a	5.0	1.0	5.0	n/a	n/a	n/a	Run4BlockList	5	n/a	n/a	n/a	n/a	n/a	n/a	n/a	n/a	n/a	n/a	n/a	n/a	n/a	n/a	n/a	n/a	n/a	n/a	n/a	n/a	n/a	n/a	n/a	n/a	n/a	n/a	n/a	n/a	n/a	n/a	n/a	n/a	n/a	n/a	n/a	n/a	n/a	n/a	n/a	n/a	n/a	n/a	5.0	1.0	5.0	n/a	n/a	n/a	n/a	n/a	n/a	n/a	n/a	n/a	n/a	n/a	n/a	n/a	n/a	n/a	n/a	n/a	n/a	n/a	n/a	n/a	n/a	n/a	n/a	n/a	n/a	n/a	D4_05.jpg	500	0	537099	-1	537099	0	TrialProc1	D4LowSmallEDBlockList	2500	0	534600	0	534600	0	534600	2499	d	1656	536256	119.958
123	2.5	000_R01_VB_allProc	35	1	000_R01_VB_allProc-35-1	60.03	1	-1671241647	8/6/18	8/6/18 17:29	13:29:24	3	0.0	0.0	414644.0	20.0	414644.0	3998.0	-999999.0	592735.0	-3.0	566588.0	0.0	Run4Proc	3	1.0	3.0	RunList	5	LowSmallED	n/a	n/a	n/a	n/a	n/a	n/a	n/a	n/a	D4LowSmallEDBlockProc	n/a	n/a	n/a	n/a	n/a	n/a	5.0	1.0	5.0	n/a	n/a	n/a	Run4BlockList	6	n/a	n/a	n/a	n/a	n/a	n/a	n/a	n/a	n/a	n/a	n/a	n/a	n/a	n/a	n/a	n/a	n/a	n/a	n/a	n/a	n/a	n/a	n/a	n/a	n/a	n/a	n/a	n/a	n/a	n/a	n/a	n/a	n/a	n/a	n/a	n/a	n/a	n/a	n/a	n/a	n/a	n/a	6.0	1.0	6.0	n/a	n/a	n/a	n/a	n/a	n/a	n/a	n/a	n/a	n/a	n/a	n/a	n/a	n/a	n/a	n/a	n/a	n/a	n/a	n/a	n/a	n/a	n/a	n/a	n/a	n/a	n/a	D4_06.jpg	500	0	540098	0	540098	0	TrialProc1	D4LowSmallEDBlockList	2500	1	537599	1	537599	-1	537598	2500	d	1818	539416	122.956
126	2.5	000_R01_VB_allProc	35	1	000_R01_VB_allProc-35-1	60.03	1	-1671241647	8/6/18	8/6/18 17:29	13:29:24	3	0.0	0.0	414644.0	20.0	414644.0	3998.0	-999999.0	592735.0	-3.0	566588.0	0.0	Run4Proc	3	1.0	3.0	RunList	6	HighLargeED	8000.0	0.0	558591.0	0.0	558591.0	0.0	558591.0	0.0	A4HighLargeEDBlockProc	n/a	n/a	n/a	n/a	n/a	n/a	6.0	1.0	6.0	n/a	n/a	n/a	Run4BlockList	1	n/a	n/a	n/a	n/a	n/a	n/a	1.0	1.0	1.0	n/a	n/a	n/a	n/a	n/a	n/a	n/a	n/a	n/a	n/a	n/a	n/a	n/a	n/a	n/a	n/a	n/a	n/a	n/a	n/a	n/a	n/a	n/a	n/a	n/a	n/a	n/a	n/a	n/a	n/a	n/a	n/a	n/a	n/a	n/a	n/a	n/a	n/a	n/a	n/a	n/a	n/a	n/a	n/a	n/a	n/a	n/a	n/a	n/a	n/a	n/a	n/a	n/a	n/a	n/a	n/a	n/a	n/a	n/a	n/a	n/a	n/a	n/a	A4_01.jpg	500	1	543097	-1	543096	0	TrialProc1	A4HighLargeEDBlockList	2500	0	540597	0	540597	-1	540597	2499	d	2051	542648	125.955
129	2.5	000_R01_VB_allProc	35	1	000_R01_VB_allProc-35-1	60.03	1	-1671241647	8/6/18	8/6/18 17:29	13:29:24	3	0.0	0.0	414644.0	20.0	414644.0	3998.0	-999999.0	592735.0	-3.0	566588.0	0.0	Run4Proc	3	1.0	3.0	RunList	6	HighLargeED	8000.0	0.0	558591.0	0.0	558591.0	0.0	558591.0	0.0	A4HighLargeEDBlockProc	n/a	n/a	n/a	n/a	n/a	n/a	6.0	1.0	6.0	n/a	n/a	n/a	Run4BlockList	2	n/a	n/a	n/a	n/a	n/a	n/a	2.0	1.0	2.0	n/a	n/a	n/a	n/a	n/a	n/a	n/a	n/a	n/a	n/a	n/a	n/a	n/a	n/a	n/a	n/a	n/a	n/a	n/a	n/a	n/a	n/a	n/a	n/a	n/a	n/a	n/a	n/a	n/a	n/a	n/a	n/a	n/a	n/a	n/a	n/a	n/a	n/a	n/a	n/a	n/a	n/a	n/a	n/a	n/a	n/a	n/a	n/a	n/a	n/a	n/a	n/a	n/a	n/a	n/a	n/a	n/a	n/a	n/a	n/a	n/a	n/a	n/a	A4_02.jpg	500	0	546095	-1	546095	0	TrialProc1	A4HighLargeEDBlockList	2500	0	543596	0	543596	0	543596	2499	c	1788	545384	128.954
132	2.5	000_R01_VB_allProc	35	1	000_R01_VB_allProc-35-1	60.03	1	-1671241647	8/6/18	8/6/18 17:29	13:29:24	3	0.0	0.0	414644.0	20.0	414644.0	3998.0	-999999.0	592735.0	-3.0	566588.0	0.0	Run4Proc	3	1.0	3.0	RunList	6	HighLargeED	8000.0	0.0	558591.0	0.0	558591.0	0.0	558591.0	0.0	A4HighLargeEDBlockProc	n/a	n/a	n/a	n/a	n/a	n/a	6.0	1.0	6.0	n/a	n/a	n/a	Run4BlockList	3	n/a	n/a	n/a	n/a	n/a	n/a	3.0	1.0	3.0	n/a	n/a	n/a	n/a	n/a	n/a	n/a	n/a	n/a	n/a	n/a	n/a	n/a	n/a	n/a	n/a	n/a	n/a	n/a	n/a	n/a	n/a	n/a	n/a	n/a	n/a	n/a	n/a	n/a	n/a	n/a	n/a	n/a	n/a	n/a	n/a	n/a	n/a	n/a	n/a	n/a	n/a	n/a	n/a	n/a	n/a	n/a	n/a	n/a	n/a	n/a	n/a	n/a	n/a	n/a	n/a	n/a	n/a	n/a	n/a	n/a	n/a	n/a	A4_03.jpg	500	0	549094	-1	549094	0	TrialProc1	A4HighLargeEDBlockList	2500	0	546595	0	546595	0	546595	2499	d	1109	547704	131.953
135	2.5	000_R01_VB_allProc	35	1	000_R01_VB_allProc-35-1	60.03	1	-1671241647	8/6/18	8/6/18 17:29	13:29:24	3	0.0	0.0	414644.0	20.0	414644.0	3998.0	-999999.0	592735.0	-3.0	566588.0	0.0	Run4Proc	3	1.0	3.0	RunList	6	HighLargeED	8000.0	0.0	558591.0	0.0	558591.0	0.0	558591.0	0.0	A4HighLargeEDBlockProc	n/a	n/a	n/a	n/a	n/a	n/a	6.0	1.0	6.0	n/a	n/a	n/a	Run4BlockList	4	n/a	n/a	n/a	n/a	n/a	n/a	4.0	1.0	4.0	n/a	n/a	n/a	n/a	n/a	n/a	n/a	n/a	n/a	n/a	n/a	n/a	n/a	n/a	n/a	n/a	n/a	n/a	n/a	n/a	n/a	n/a	n/a	n/a	n/a	n/a	n/a	n/a	n/a	n/a	n/a	n/a	n/a	n/a	n/a	n/a	n/a	n/a	n/a	n/a	n/a	n/a	n/a	n/a	n/a	n/a	n/a	n/a	n/a	n/a	n/a	n/a	n/a	n/a	n/a	n/a	n/a	n/a	n/a	n/a	n/a	n/a	n/a	A4_04.jpg	500	0	552093	-1	552093	0	TrialProc1	A4HighLargeEDBlockList	2500	0	549594	0	549594	0	549594	2499	n/a	0	0	134.952
138	2.5	000_R01_VB_allProc	35	1	000_R01_VB_allProc-35-1	60.03	1	-1671241647	8/6/18	8/6/18 17:29	13:29:24	3	0.0	0.0	414644.0	20.0	414644.0	3998.0	-999999.0	592735.0	-3.0	566588.0	0.0	Run4Proc	3	1.0	3.0	RunList	6	HighLargeED	8000.0	0.0	558591.0	0.0	558591.0	0.0	558591.0	0.0	A4HighLargeEDBlockProc	n/a	n/a	n/a	n/a	n/a	n/a	6.0	1.0	6.0	n/a	n/a	n/a	Run4BlockList	5	n/a	n/a	n/a	n/a	n/a	n/a	5.0	1.0	5.0	n/a	n/a	n/a	n/a	n/a	n/a	n/a	n/a	n/a	n/a	n/a	n/a	n/a	n/a	n/a	n/a	n/a	n/a	n/a	n/a	n/a	n/a	n/a	n/a	n/a	n/a	n/a	n/a	n/a	n/a	n/a	n/a	n/a	n/a	n/a	n/a	n/a	n/a	n/a	n/a	n/a	n/a	n/a	n/a	n/a	n/a	n/a	n/a	n/a	n/a	n/a	n/a	n/a	n/a	n/a	n/a	n/a	n/a	n/a	n/a	n/a	n/a	n/a	A4_05.jpg	500	0	555092	-1	555092	0	TrialProc1	A4HighLargeEDBlockList	2500	0	552593	0	552593	0	552593	2499	d	1479	554072	137.951
141	2.5	000_R01_VB_allProc	35	1	000_R01_VB_allProc-35-1	60.03	1	-1671241647	8/6/18	8/6/18 17:29	13:29:24	3	0.0	0.0	414644.0	20.0	414644.0	3998.0	-999999.0	592735.0	-3.0	566588.0	0.0	Run4Proc	3	1.0	3.0	RunList	6	HighLargeED	8000.0	0.0	558591.0	0.0	558591.0	0.0	558591.0	0.0	A4HighLargeEDBlockProc	n/a	n/a	n/a	n/a	n/a	n/a	6.0	1.0	6.0	n/a	n/a	n/a	Run4BlockList	6	n/a	n/a	n/a	n/a	n/a	n/a	6.0	1.0	6.0	n/a	n/a	n/a	n/a	n/a	n/a	n/a	n/a	n/a	n/a	n/a	n/a	n/a	n/a	n/a	n/a	n/a	n/a	n/a	n/a	n/a	n/a	n/a	n/a	n/a	n/a	n/a	n/a	n/a	n/a	n/a	n/a	n/a	n/a	n/a	n/a	n/a	n/a	n/a	n/a	n/a	n/a	n/a	n/a	n/a	n/a	n/a	n/a	n/a	n/a	n/a	n/a	n/a	n/a	n/a	n/a	n/a	n/a	n/a	n/a	n/a	n/a	n/a	A4_06.jpg	500	0	558091	-1	558091	0	TrialProc1	A4HighLargeEDBlockList	2500	0	555592	0	555592	0	555592	2499	n/a	0	0	140.95
