onset	duration	experiment_name	sub	ses	clock_information	datafile_basename	display_refreshrate	experiment_version	group	randomseed	runtime_capabilities	runtime_version	runtimeversionexpected	session_date	session_start_date_time_utc	session_time	studio_version	block	fixation2trs_durationerror	fixation2trs_offsetdelay	fixation2trs_offsettime	fixation2trs_onsetdelay	fixation2trs_onsettime	fixation2trs_onsettoonsettime	goodwork_durationerror	goodwork_finishtime	goodwork_onsetdelay	goodwork_onsettime	goodwork_onsettoonsettime	procedure_block	runlist	runlist_cycle	runlist_sample	running_block	trial	condition	interblockinterval_duration	interblockinterval_durationerror	interblockinterval_finishtime	interblockinterval_offsetdelay	interblockinterval_offsettime	interblockinterval_onsetdelay	interblockinterval_onsettime	interblockinterval_onsettoonsettime	procedure_trial	run1blocklist	run1blocklist_cycle	run1blocklist_sample	run2blocklist	run2blocklist_cycle	run2blocklist_sample	run3blocklist	run3blocklist_cycle	run3blocklist_sample	run4blocklist	run4blocklist_cycle	run4blocklist_sample	run5blocklist	run5blocklist_cycle	run5blocklist_sample	running_trial	subtrial	a1highlargeedblocklist	a1highlargeedblocklist_cycle	a1highlargeedblocklist_sample	a2highlargeedblocklist	a2highlargeedblocklist_cycle	a2highlargeedblocklist_sample	a3highlargeedblocklist	a3highlargeedblocklist_cycle	a3highlargeedblocklist_sample	a4highlargeedblocklist	a4highlargeedblocklist_cycle	a4highlargeedblocklist_sample	a5highlargeedblocklist	a5highlargeedblocklist_cycle	a5highlargeedblocklist_sample	b1highsmalledblocklist	b1highsmalledblocklist_cycle	b1highsmalledblocklist_sample	b2highsmalledblocklist	b2highsmalledblocklist_cycle	b2highsmalledblocklist_sample	b3highsmalledblocklist	b3highsmalledblocklist_cycle	b3highsmalledblocklist_sample	b4highsmalledblocklist	b4highsmalledblocklist_cycle	b4highsmalledblocklist_sample	b5highsmalledblocklist	b5highsmalledblocklist_cycle	b5highsmalledblocklist_sample	c1lowlargeedblocklist	c1lowlargeedblocklist_cycle	c1lowlargeedblocklist_sample	c2lowlargeedblocklist	c2lowlargeedblocklist_cycle	c2lowlargeedblocklist_sample	c3lowlargeedblocklist	c3lowlargeedblocklist_cycle	c3lowlargeedblocklist_sample	c4lowlargeedblocklist	c4lowlargeedblocklist_cycle	c4lowlargeedblocklist_sample	c5lowlargeedblocklist	c5lowlargeedblocklist_cycle	c5lowlargeedblocklist_sample	d1lowsmalledblocklist	d1lowsmalledblocklist_cycle	d1lowsmalledblocklist_sample	d2highlargeedblocklist	d2highlargeedblocklist_cycle	d2highlargeedblocklist_sample	d3lowsmalledblocklist	d3lowsmalledblocklist_cycle	d3lowsmalledblocklist_sample	d4lowsmalledblocklist	d4lowsmalledblocklist_cycle	d4lowsmalledblocklist_sample	d5lowsmalledblocklist	d5lowsmalledblocklist_cycle	d5lowsmalledblocklist_sample	e1officelargeblocklist	e1officelargeblocklist_cycle	e1officelargeblocklist_sample	e2officelargeblocklist	e2officelargeblocklist_cycle	e2officelargeblocklist_sample	e3officelargeblocklist	e3officelargeblocklist_cycle	e3officelargeblocklist_sample	e4officelargeblocklist	e4officelargeblocklist_cycle	e4officelargeblocklist_sample	e5officelargeblocklist	e5officelargeblocklist_cycle	e5officelargeblocklist_sample	f1officesmallblocklist	f1officesmallblocklist_cycle	f1officesmallblocklist_sample	f2officesmallblocklist	f2officesmallblocklist_cycle	f2officesmallblocklist_sample	f3officesmallblocklist	f3officesmallblocklist_cycle	f3officesmallblocklist_sample	f4officesmallblocklist	f4officesmallblocklist_cycle	f4officesmallblocklist_sample	f5officesmallblocklist	f5officesmallblocklist_cycle	f5officesmallblocklist_sample	filename	isi_duration	isi_durationerror	isi_finishtime	isi_onsetdelay	isi_onsettime	isi_onsettoonsettime	procedure_subtrial	running_subtrial	stimslide_duration	stimslide_durationerror	stimslide_finishtime	stimslide_offsetdelay	stimslide_offsettime	stimslide_onsetdelay	stimslide_onsettime	stimslide_onsettoonsettime	stimslide_resp	stimslide_rt	stimslide_rttime	onset_unrounded
4	2.5	000_R01_VA_allProc	5	1	"<?xml version=""1.0""?>\n<Clock xmlns:dt=""urn:schemas-microsoft-com:datatypes""><Description dt:dt=""string"">E-Prime Primary Realtime Clock</Description><StartTime><Timestamp dt:dt=""int"">0</Timestamp><DateUtc dt:dt=""string"">2018-07-13T19:49:04Z</DateUtc></StartTime><FrequencyChanges><FrequencyChange><Frequency dt:dt=""r8"">3020400</Frequency><Timestamp dt:dt=""r8"">305266439890</Timestamp><Current dt:dt=""r8"">0</Current><DateUtc dt:dt=""string"">2018-07-13T19:49:04Z</DateUtc></FrequencyChange></FrequencyChanges></Clock>\n"	000_R01_VA_allProc-005-1	60.022	1.0.0.178	1	324377412	Professional	2.0.10.356	2.0.10.356	07-13-2018	7/13/2018 7:49:04 PM	15:49:04	2.0.10.252	4	0	0	569435	9	569435	3999	-999999	739692	-3	729376	0	Run5Proc	4	1	4	RunList	1	LowLargeED	8000.0	0.0	591427.0	0.0	591427.0	0.0	591427.0	0.0	C5LowLargeEDBlockProc	n/a	n/a	n/a	n/a	n/a	n/a	n/a	n/a	n/a	n/a	n/a	n/a	1.0	1.0	1.0	Run5BlockList	1	n/a	n/a	n/a	n/a	n/a	n/a	n/a	n/a	n/a	n/a	n/a	n/a	n/a	n/a	n/a	n/a	n/a	n/a	n/a	n/a	n/a	n/a	n/a	n/a	n/a	n/a	n/a	n/a	n/a	n/a	n/a	n/a	n/a	n/a	n/a	n/a	n/a	n/a	n/a	n/a	n/a	n/a	1.0	1.0	1.0	n/a	n/a	n/a	n/a	n/a	n/a	n/a	n/a	n/a	n/a	n/a	n/a	n/a	n/a	n/a	n/a	n/a	n/a	n/a	n/a	n/a	n/a	n/a	n/a	n/a	n/a	n/a	n/a	n/a	n/a	n/a	n/a	n/a	n/a	n/a	n/a	n/a	n/a	n/a	n/a	n/a	n/a	n/a	n/a	n/a	C5_01.jpg	500	0	575933	-1	575933	0	TrialProc1	C5LowLargeEDBlockList	2500	0	573434	0	573434	-1	573434	2499	d	1462	574896	4.0
7	2.5	000_R01_VA_allProc	5	1	"<?xml version=""1.0""?>\n<Clock xmlns:dt=""urn:schemas-microsoft-com:datatypes""><Description dt:dt=""string"">E-Prime Primary Realtime Clock</Description><StartTime><Timestamp dt:dt=""int"">0</Timestamp><DateUtc dt:dt=""string"">2018-07-13T19:49:04Z</DateUtc></StartTime><FrequencyChanges><FrequencyChange><Frequency dt:dt=""r8"">3020400</Frequency><Timestamp dt:dt=""r8"">305266439890</Timestamp><Current dt:dt=""r8"">0</Current><DateUtc dt:dt=""string"">2018-07-13T19:49:04Z</DateUtc></FrequencyChange></FrequencyChanges></Clock>\n"	000_R01_VA_allProc-005-1	60.022	1.0.0.178	1	324377412	Professional	2.0.10.356	2.0.10.356	07-13-2018	7/13/2018 7:49:04 PM	15:49:04	2.0.10.252	4	0	0	569435	9	569435	3999	-999999	739692	-3	729376	0	Run5Proc	4	1	4	RunList	1	LowLargeED	8000.0	0.0	591427.0	0.0	591427.0	0.0	591427.0	0.0	C5LowLargeEDBlockProc	n/a	n/a	n/a	n/a	n/a	n/a	n/a	n/a	n/a	n/a	n/a	n/a	1.0	1.0	1.0	Run5BlockList	2	n/a	n/a	n/a	n/a	n/a	n/a	n/a	n/a	n/a	n/a	n/a	n/a	n/a	n/a	n/a	n/a	n/a	n/a	n/a	n/a	n/a	n/a	n/a	n/a	n/a	n/a	n/a	n/a	n/a	n/a	n/a	n/a	n/a	n/a	n/a	n/a	n/a	n/a	n/a	n/a	n/a	n/a	2.0	1.0	2.0	n/a	n/a	n/a	n/a	n/a	n/a	n/a	n/a	n/a	n/a	n/a	n/a	n/a	n/a	n/a	n/a	n/a	n/a	n/a	n/a	n/a	n/a	n/a	n/a	n/a	n/a	n/a	n/a	n/a	n/a	n/a	n/a	n/a	n/a	n/a	n/a	n/a	n/a	n/a	n/a	n/a	n/a	n/a	n/a	n/a	C5_02.jpg	500	0	578932	-1	578932	0	TrialProc1	C5LowLargeEDBlockList	2500	0	576433	0	576433	0	576433	2499	d	1015	577448	6.9990000000000006
10	2.5	000_R01_VA_allProc	5	1	"<?xml version=""1.0""?>\n<Clock xmlns:dt=""urn:schemas-microsoft-com:datatypes""><Description dt:dt=""string"">E-Prime Primary Realtime Clock</Description><StartTime><Timestamp dt:dt=""int"">0</Timestamp><DateUtc dt:dt=""string"">2018-07-13T19:49:04Z</DateUtc></StartTime><FrequencyChanges><FrequencyChange><Frequency dt:dt=""r8"">3020400</Frequency><Timestamp dt:dt=""r8"">305266439890</Timestamp><Current dt:dt=""r8"">0</Current><DateUtc dt:dt=""string"">2018-07-13T19:49:04Z</DateUtc></FrequencyChange></FrequencyChanges></Clock>\n"	000_R01_VA_allProc-005-1	60.022	1.0.0.178	1	324377412	Professional	2.0.10.356	2.0.10.356	07-13-2018	7/13/2018 7:49:04 PM	15:49:04	2.0.10.252	4	0	0	569435	9	569435	3999	-999999	739692	-3	729376	0	Run5Proc	4	1	4	RunList	1	LowLargeED	8000.0	0.0	591427.0	0.0	591427.0	0.0	591427.0	0.0	C5LowLargeEDBlockProc	n/a	n/a	n/a	n/a	n/a	n/a	n/a	n/a	n/a	n/a	n/a	n/a	1.0	1.0	1.0	Run5BlockList	3	n/a	n/a	n/a	n/a	n/a	n/a	n/a	n/a	n/a	n/a	n/a	n/a	n/a	n/a	n/a	n/a	n/a	n/a	n/a	n/a	n/a	n/a	n/a	n/a	n/a	n/a	n/a	n/a	n/a	n/a	n/a	n/a	n/a	n/a	n/a	n/a	n/a	n/a	n/a	n/a	n/a	n/a	3.0	1.0	3.0	n/a	n/a	n/a	n/a	n/a	n/a	n/a	n/a	n/a	n/a	n/a	n/a	n/a	n/a	n/a	n/a	n/a	n/a	n/a	n/a	n/a	n/a	n/a	n/a	n/a	n/a	n/a	n/a	n/a	n/a	n/a	n/a	n/a	n/a	n/a	n/a	n/a	n/a	n/a	n/a	n/a	n/a	n/a	n/a	n/a	C5_03.jpg	500	0	581931	-1	581931	0	TrialProc1	C5LowLargeEDBlockList	2500	0	579432	0	579432	0	579432	2499	d	1016	580448	9.998000000000001
13	2.5	000_R01_VA_allProc	5	1	"<?xml version=""1.0""?>\n<Clock xmlns:dt=""urn:schemas-microsoft-com:datatypes""><Description dt:dt=""string"">E-Prime Primary Realtime Clock</Description><StartTime><Timestamp dt:dt=""int"">0</Timestamp><DateUtc dt:dt=""string"">2018-07-13T19:49:04Z</DateUtc></StartTime><FrequencyChanges><FrequencyChange><Frequency dt:dt=""r8"">3020400</Frequency><Timestamp dt:dt=""r8"">305266439890</Timestamp><Current dt:dt=""r8"">0</Current><DateUtc dt:dt=""string"">2018-07-13T19:49:04Z</DateUtc></FrequencyChange></FrequencyChanges></Clock>\n"	000_R01_VA_allProc-005-1	60.022	1.0.0.178	1	324377412	Professional	2.0.10.356	2.0.10.356	07-13-2018	7/13/2018 7:49:04 PM	15:49:04	2.0.10.252	4	0	0	569435	9	569435	3999	-999999	739692	-3	729376	0	Run5Proc	4	1	4	RunList	1	LowLargeED	8000.0	0.0	591427.0	0.0	591427.0	0.0	591427.0	0.0	C5LowLargeEDBlockProc	n/a	n/a	n/a	n/a	n/a	n/a	n/a	n/a	n/a	n/a	n/a	n/a	1.0	1.0	1.0	Run5BlockList	4	n/a	n/a	n/a	n/a	n/a	n/a	n/a	n/a	n/a	n/a	n/a	n/a	n/a	n/a	n/a	n/a	n/a	n/a	n/a	n/a	n/a	n/a	n/a	n/a	n/a	n/a	n/a	n/a	n/a	n/a	n/a	n/a	n/a	n/a	n/a	n/a	n/a	n/a	n/a	n/a	n/a	n/a	4.0	1.0	4.0	n/a	n/a	n/a	n/a	n/a	n/a	n/a	n/a	n/a	n/a	n/a	n/a	n/a	n/a	n/a	n/a	n/a	n/a	n/a	n/a	n/a	n/a	n/a	n/a	n/a	n/a	n/a	n/a	n/a	n/a	n/a	n/a	n/a	n/a	n/a	n/a	n/a	n/a	n/a	n/a	n/a	n/a	n/a	n/a	n/a	C5_04.jpg	500	0	584930	0	584930	0	TrialProc1	C5LowLargeEDBlockList	2500	1	582431	1	582431	-1	582430	2500	d	1138	583568	12.996
16	2.5	000_R01_VA_allProc	5	1	"<?xml version=""1.0""?>\n<Clock xmlns:dt=""urn:schemas-microsoft-com:datatypes""><Description dt:dt=""string"">E-Prime Primary Realtime Clock</Description><StartTime><Timestamp dt:dt=""int"">0</Timestamp><DateUtc dt:dt=""string"">2018-07-13T19:49:04Z</DateUtc></StartTime><FrequencyChanges><FrequencyChange><Frequency dt:dt=""r8"">3020400</Frequency><Timestamp dt:dt=""r8"">305266439890</Timestamp><Current dt:dt=""r8"">0</Current><DateUtc dt:dt=""string"">2018-07-13T19:49:04Z</DateUtc></FrequencyChange></FrequencyChanges></Clock>\n"	000_R01_VA_allProc-005-1	60.022	1.0.0.178	1	324377412	Professional	2.0.10.356	2.0.10.356	07-13-2018	7/13/2018 7:49:04 PM	15:49:04	2.0.10.252	4	0	0	569435	9	569435	3999	-999999	739692	-3	729376	0	Run5Proc	4	1	4	RunList	1	LowLargeED	8000.0	0.0	591427.0	0.0	591427.0	0.0	591427.0	0.0	C5LowLargeEDBlockProc	n/a	n/a	n/a	n/a	n/a	n/a	n/a	n/a	n/a	n/a	n/a	n/a	1.0	1.0	1.0	Run5BlockList	5	n/a	n/a	n/a	n/a	n/a	n/a	n/a	n/a	n/a	n/a	n/a	n/a	n/a	n/a	n/a	n/a	n/a	n/a	n/a	n/a	n/a	n/a	n/a	n/a	n/a	n/a	n/a	n/a	n/a	n/a	n/a	n/a	n/a	n/a	n/a	n/a	n/a	n/a	n/a	n/a	n/a	n/a	5.0	1.0	5.0	n/a	n/a	n/a	n/a	n/a	n/a	n/a	n/a	n/a	n/a	n/a	n/a	n/a	n/a	n/a	n/a	n/a	n/a	n/a	n/a	n/a	n/a	n/a	n/a	n/a	n/a	n/a	n/a	n/a	n/a	n/a	n/a	n/a	n/a	n/a	n/a	n/a	n/a	n/a	n/a	n/a	n/a	n/a	n/a	n/a	C5_05.jpg	500	0	587928	-1	587928	0	TrialProc1	C5LowLargeEDBlockList	2500	0	585429	0	585429	-1	585429	2499	d	939	586368	15.995
19	2.5	000_R01_VA_allProc	5	1	"<?xml version=""1.0""?>\n<Clock xmlns:dt=""urn:schemas-microsoft-com:datatypes""><Description dt:dt=""string"">E-Prime Primary Realtime Clock</Description><StartTime><Timestamp dt:dt=""int"">0</Timestamp><DateUtc dt:dt=""string"">2018-07-13T19:49:04Z</DateUtc></StartTime><FrequencyChanges><FrequencyChange><Frequency dt:dt=""r8"">3020400</Frequency><Timestamp dt:dt=""r8"">305266439890</Timestamp><Current dt:dt=""r8"">0</Current><DateUtc dt:dt=""string"">2018-07-13T19:49:04Z</DateUtc></FrequencyChange></FrequencyChanges></Clock>\n"	000_R01_VA_allProc-005-1	60.022	1.0.0.178	1	324377412	Professional	2.0.10.356	2.0.10.356	07-13-2018	7/13/2018 7:49:04 PM	15:49:04	2.0.10.252	4	0	0	569435	9	569435	3999	-999999	739692	-3	729376	0	Run5Proc	4	1	4	RunList	1	LowLargeED	8000.0	0.0	591427.0	0.0	591427.0	0.0	591427.0	0.0	C5LowLargeEDBlockProc	n/a	n/a	n/a	n/a	n/a	n/a	n/a	n/a	n/a	n/a	n/a	n/a	1.0	1.0	1.0	Run5BlockList	6	n/a	n/a	n/a	n/a	n/a	n/a	n/a	n/a	n/a	n/a	n/a	n/a	n/a	n/a	n/a	n/a	n/a	n/a	n/a	n/a	n/a	n/a	n/a	n/a	n/a	n/a	n/a	n/a	n/a	n/a	n/a	n/a	n/a	n/a	n/a	n/a	n/a	n/a	n/a	n/a	n/a	n/a	6.0	1.0	6.0	n/a	n/a	n/a	n/a	n/a	n/a	n/a	n/a	n/a	n/a	n/a	n/a	n/a	n/a	n/a	n/a	n/a	n/a	n/a	n/a	n/a	n/a	n/a	n/a	n/a	n/a	n/a	n/a	n/a	n/a	n/a	n/a	n/a	n/a	n/a	n/a	n/a	n/a	n/a	n/a	n/a	n/a	n/a	n/a	n/a	C5_06.jpg	500	0	590927	-1	590927	0	TrialProc1	C5LowLargeEDBlockList	2500	0	588428	0	588428	0	588428	2499	d	1524	589952	18.994
30	2.5	000_R01_VA_allProc	5	1	"<?xml version=""1.0""?>\n<Clock xmlns:dt=""urn:schemas-microsoft-com:datatypes""><Description dt:dt=""string"">E-Prime Primary Realtime Clock</Description><StartTime><Timestamp dt:dt=""int"">0</Timestamp><DateUtc dt:dt=""string"">2018-07-13T19:49:04Z</DateUtc></StartTime><FrequencyChanges><FrequencyChange><Frequency dt:dt=""r8"">3020400</Frequency><Timestamp dt:dt=""r8"">305266439890</Timestamp><Current dt:dt=""r8"">0</Current><DateUtc dt:dt=""string"">2018-07-13T19:49:04Z</DateUtc></FrequencyChange></FrequencyChanges></Clock>\n"	000_R01_VA_allProc-005-1	60.022	1.0.0.178	1	324377412	Professional	2.0.10.356	2.0.10.356	07-13-2018	7/13/2018 7:49:04 PM	15:49:04	2.0.10.252	4	0	0	569435	9	569435	3999	-999999	739692	-3	729376	0	Run5Proc	4	1	4	RunList	2	OfficeSmall	8000.0	0.0	617418.0	0.0	617418.0	0.0	617418.0	0.0	F5OfficeSmallBlockProc	n/a	n/a	n/a	n/a	n/a	n/a	n/a	n/a	n/a	n/a	n/a	n/a	2.0	1.0	2.0	Run5BlockList	1	n/a	n/a	n/a	n/a	n/a	n/a	n/a	n/a	n/a	n/a	n/a	n/a	n/a	n/a	n/a	n/a	n/a	n/a	n/a	n/a	n/a	n/a	n/a	n/a	n/a	n/a	n/a	n/a	n/a	n/a	n/a	n/a	n/a	n/a	n/a	n/a	n/a	n/a	n/a	n/a	n/a	n/a	n/a	n/a	n/a	n/a	n/a	n/a	n/a	n/a	n/a	n/a	n/a	n/a	n/a	n/a	n/a	n/a	n/a	n/a	n/a	n/a	n/a	n/a	n/a	n/a	n/a	n/a	n/a	n/a	n/a	n/a	n/a	n/a	n/a	n/a	n/a	n/a	n/a	n/a	n/a	n/a	n/a	n/a	n/a	n/a	n/a	1.0	1.0	1.0	F5_01.jpg	500	0	601923	-1	601923	0	TrialProc1	F5OfficeSmallBlockList	2500	0	599424	0	599424	-3	599424	2499	d	2216	601640	29.99
33	2.5	000_R01_VA_allProc	5	1	"<?xml version=""1.0""?>\n<Clock xmlns:dt=""urn:schemas-microsoft-com:datatypes""><Description dt:dt=""string"">E-Prime Primary Realtime Clock</Description><StartTime><Timestamp dt:dt=""int"">0</Timestamp><DateUtc dt:dt=""string"">2018-07-13T19:49:04Z</DateUtc></StartTime><FrequencyChanges><FrequencyChange><Frequency dt:dt=""r8"">3020400</Frequency><Timestamp dt:dt=""r8"">305266439890</Timestamp><Current dt:dt=""r8"">0</Current><DateUtc dt:dt=""string"">2018-07-13T19:49:04Z</DateUtc></FrequencyChange></FrequencyChanges></Clock>\n"	000_R01_VA_allProc-005-1	60.022	1.0.0.178	1	324377412	Professional	2.0.10.356	2.0.10.356	07-13-2018	7/13/2018 7:49:04 PM	15:49:04	2.0.10.252	4	0	0	569435	9	569435	3999	-999999	739692	-3	729376	0	Run5Proc	4	1	4	RunList	2	OfficeSmall	8000.0	0.0	617418.0	0.0	617418.0	0.0	617418.0	0.0	F5OfficeSmallBlockProc	n/a	n/a	n/a	n/a	n/a	n/a	n/a	n/a	n/a	n/a	n/a	n/a	2.0	1.0	2.0	Run5BlockList	2	n/a	n/a	n/a	n/a	n/a	n/a	n/a	n/a	n/a	n/a	n/a	n/a	n/a	n/a	n/a	n/a	n/a	n/a	n/a	n/a	n/a	n/a	n/a	n/a	n/a	n/a	n/a	n/a	n/a	n/a	n/a	n/a	n/a	n/a	n/a	n/a	n/a	n/a	n/a	n/a	n/a	n/a	n/a	n/a	n/a	n/a	n/a	n/a	n/a	n/a	n/a	n/a	n/a	n/a	n/a	n/a	n/a	n/a	n/a	n/a	n/a	n/a	n/a	n/a	n/a	n/a	n/a	n/a	n/a	n/a	n/a	n/a	n/a	n/a	n/a	n/a	n/a	n/a	n/a	n/a	n/a	n/a	n/a	n/a	n/a	n/a	n/a	2.0	1.0	2.0	F5_02.jpg	500	0	604922	-1	604922	0	TrialProc1	F5OfficeSmallBlockList	2500	0	602423	0	602423	0	602423	2499	d	1353	603776	32.989000000000004
36	2.5	000_R01_VA_allProc	5	1	"<?xml version=""1.0""?>\n<Clock xmlns:dt=""urn:schemas-microsoft-com:datatypes""><Description dt:dt=""string"">E-Prime Primary Realtime Clock</Description><StartTime><Timestamp dt:dt=""int"">0</Timestamp><DateUtc dt:dt=""string"">2018-07-13T19:49:04Z</DateUtc></StartTime><FrequencyChanges><FrequencyChange><Frequency dt:dt=""r8"">3020400</Frequency><Timestamp dt:dt=""r8"">305266439890</Timestamp><Current dt:dt=""r8"">0</Current><DateUtc dt:dt=""string"">2018-07-13T19:49:04Z</DateUtc></FrequencyChange></FrequencyChanges></Clock>\n"	000_R01_VA_allProc-005-1	60.022	1.0.0.178	1	324377412	Professional	2.0.10.356	2.0.10.356	07-13-2018	7/13/2018 7:49:04 PM	15:49:04	2.0.10.252	4	0	0	569435	9	569435	3999	-999999	739692	-3	729376	0	Run5Proc	4	1	4	RunList	2	OfficeSmall	8000.0	0.0	617418.0	0.0	617418.0	0.0	617418.0	0.0	F5OfficeSmallBlockProc	n/a	n/a	n/a	n/a	n/a	n/a	n/a	n/a	n/a	n/a	n/a	n/a	2.0	1.0	2.0	Run5BlockList	3	n/a	n/a	n/a	n/a	n/a	n/a	n/a	n/a	n/a	n/a	n/a	n/a	n/a	n/a	n/a	n/a	n/a	n/a	n/a	n/a	n/a	n/a	n/a	n/a	n/a	n/a	n/a	n/a	n/a	n/a	n/a	n/a	n/a	n/a	n/a	n/a	n/a	n/a	n/a	n/a	n/a	n/a	n/a	n/a	n/a	n/a	n/a	n/a	n/a	n/a	n/a	n/a	n/a	n/a	n/a	n/a	n/a	n/a	n/a	n/a	n/a	n/a	n/a	n/a	n/a	n/a	n/a	n/a	n/a	n/a	n/a	n/a	n/a	n/a	n/a	n/a	n/a	n/a	n/a	n/a	n/a	n/a	n/a	n/a	n/a	n/a	n/a	3.0	1.0	3.0	F5_03.jpg	500	0	607921	-1	607921	0	TrialProc1	F5OfficeSmallBlockList	2500	0	605422	0	605422	0	605422	2499	c	1129	606551	35.988
39	2.5	000_R01_VA_allProc	5	1	"<?xml version=""1.0""?>\n<Clock xmlns:dt=""urn:schemas-microsoft-com:datatypes""><Description dt:dt=""string"">E-Prime Primary Realtime Clock</Description><StartTime><Timestamp dt:dt=""int"">0</Timestamp><DateUtc dt:dt=""string"">2018-07-13T19:49:04Z</DateUtc></StartTime><FrequencyChanges><FrequencyChange><Frequency dt:dt=""r8"">3020400</Frequency><Timestamp dt:dt=""r8"">305266439890</Timestamp><Current dt:dt=""r8"">0</Current><DateUtc dt:dt=""string"">2018-07-13T19:49:04Z</DateUtc></FrequencyChange></FrequencyChanges></Clock>\n"	000_R01_VA_allProc-005-1	60.022	1.0.0.178	1	324377412	Professional	2.0.10.356	2.0.10.356	07-13-2018	7/13/2018 7:49:04 PM	15:49:04	2.0.10.252	4	0	0	569435	9	569435	3999	-999999	739692	-3	729376	0	Run5Proc	4	1	4	RunList	2	OfficeSmall	8000.0	0.0	617418.0	0.0	617418.0	0.0	617418.0	0.0	F5OfficeSmallBlockProc	n/a	n/a	n/a	n/a	n/a	n/a	n/a	n/a	n/a	n/a	n/a	n/a	2.0	1.0	2.0	Run5BlockList	4	n/a	n/a	n/a	n/a	n/a	n/a	n/a	n/a	n/a	n/a	n/a	n/a	n/a	n/a	n/a	n/a	n/a	n/a	n/a	n/a	n/a	n/a	n/a	n/a	n/a	n/a	n/a	n/a	n/a	n/a	n/a	n/a	n/a	n/a	n/a	n/a	n/a	n/a	n/a	n/a	n/a	n/a	n/a	n/a	n/a	n/a	n/a	n/a	n/a	n/a	n/a	n/a	n/a	n/a	n/a	n/a	n/a	n/a	n/a	n/a	n/a	n/a	n/a	n/a	n/a	n/a	n/a	n/a	n/a	n/a	n/a	n/a	n/a	n/a	n/a	n/a	n/a	n/a	n/a	n/a	n/a	n/a	n/a	n/a	n/a	n/a	n/a	4.0	1.0	4.0	F5_04.jpg	500	0	610920	-1	610920	0	TrialProc1	F5OfficeSmallBlockList	2500	0	608421	0	608421	0	608421	2499	d	1234	609655	38.987
42	2.5	000_R01_VA_allProc	5	1	"<?xml version=""1.0""?>\n<Clock xmlns:dt=""urn:schemas-microsoft-com:datatypes""><Description dt:dt=""string"">E-Prime Primary Realtime Clock</Description><StartTime><Timestamp dt:dt=""int"">0</Timestamp><DateUtc dt:dt=""string"">2018-07-13T19:49:04Z</DateUtc></StartTime><FrequencyChanges><FrequencyChange><Frequency dt:dt=""r8"">3020400</Frequency><Timestamp dt:dt=""r8"">305266439890</Timestamp><Current dt:dt=""r8"">0</Current><DateUtc dt:dt=""string"">2018-07-13T19:49:04Z</DateUtc></FrequencyChange></FrequencyChanges></Clock>\n"	000_R01_VA_allProc-005-1	60.022	1.0.0.178	1	324377412	Professional	2.0.10.356	2.0.10.356	07-13-2018	7/13/2018 7:49:04 PM	15:49:04	2.0.10.252	4	0	0	569435	9	569435	3999	-999999	739692	-3	729376	0	Run5Proc	4	1	4	RunList	2	OfficeSmall	8000.0	0.0	617418.0	0.0	617418.0	0.0	617418.0	0.0	F5OfficeSmallBlockProc	n/a	n/a	n/a	n/a	n/a	n/a	n/a	n/a	n/a	n/a	n/a	n/a	2.0	1.0	2.0	Run5BlockList	5	n/a	n/a	n/a	n/a	n/a	n/a	n/a	n/a	n/a	n/a	n/a	n/a	n/a	n/a	n/a	n/a	n/a	n/a	n/a	n/a	n/a	n/a	n/a	n/a	n/a	n/a	n/a	n/a	n/a	n/a	n/a	n/a	n/a	n/a	n/a	n/a	n/a	n/a	n/a	n/a	n/a	n/a	n/a	n/a	n/a	n/a	n/a	n/a	n/a	n/a	n/a	n/a	n/a	n/a	n/a	n/a	n/a	n/a	n/a	n/a	n/a	n/a	n/a	n/a	n/a	n/a	n/a	n/a	n/a	n/a	n/a	n/a	n/a	n/a	n/a	n/a	n/a	n/a	n/a	n/a	n/a	n/a	n/a	n/a	n/a	n/a	n/a	5.0	1.0	5.0	F5_05.jpg	500	0	613919	-1	613919	0	TrialProc1	F5OfficeSmallBlockList	2500	0	611420	0	611420	0	611420	2499	d	1187	612607	41.986
45	2.5	000_R01_VA_allProc	5	1	"<?xml version=""1.0""?>\n<Clock xmlns:dt=""urn:schemas-microsoft-com:datatypes""><Description dt:dt=""string"">E-Prime Primary Realtime Clock</Description><StartTime><Timestamp dt:dt=""int"">0</Timestamp><DateUtc dt:dt=""string"">2018-07-13T19:49:04Z</DateUtc></StartTime><FrequencyChanges><FrequencyChange><Frequency dt:dt=""r8"">3020400</Frequency><Timestamp dt:dt=""r8"">305266439890</Timestamp><Current dt:dt=""r8"">0</Current><DateUtc dt:dt=""string"">2018-07-13T19:49:04Z</DateUtc></FrequencyChange></FrequencyChanges></Clock>\n"	000_R01_VA_allProc-005-1	60.022	1.0.0.178	1	324377412	Professional	2.0.10.356	2.0.10.356	07-13-2018	7/13/2018 7:49:04 PM	15:49:04	2.0.10.252	4	0	0	569435	9	569435	3999	-999999	739692	-3	729376	0	Run5Proc	4	1	4	RunList	2	OfficeSmall	8000.0	0.0	617418.0	0.0	617418.0	0.0	617418.0	0.0	F5OfficeSmallBlockProc	n/a	n/a	n/a	n/a	n/a	n/a	n/a	n/a	n/a	n/a	n/a	n/a	2.0	1.0	2.0	Run5BlockList	6	n/a	n/a	n/a	n/a	n/a	n/a	n/a	n/a	n/a	n/a	n/a	n/a	n/a	n/a	n/a	n/a	n/a	n/a	n/a	n/a	n/a	n/a	n/a	n/a	n/a	n/a	n/a	n/a	n/a	n/a	n/a	n/a	n/a	n/a	n/a	n/a	n/a	n/a	n/a	n/a	n/a	n/a	n/a	n/a	n/a	n/a	n/a	n/a	n/a	n/a	n/a	n/a	n/a	n/a	n/a	n/a	n/a	n/a	n/a	n/a	n/a	n/a	n/a	n/a	n/a	n/a	n/a	n/a	n/a	n/a	n/a	n/a	n/a	n/a	n/a	n/a	n/a	n/a	n/a	n/a	n/a	n/a	n/a	n/a	n/a	n/a	n/a	6.0	1.0	6.0	F5_06.jpg	500	0	616918	-1	616918	0	TrialProc1	F5OfficeSmallBlockList	2500	0	614419	0	614419	0	614419	2499	d	1036	615455	44.985
56	2.5	000_R01_VA_allProc	5	1	"<?xml version=""1.0""?>\n<Clock xmlns:dt=""urn:schemas-microsoft-com:datatypes""><Description dt:dt=""string"">E-Prime Primary Realtime Clock</Description><StartTime><Timestamp dt:dt=""int"">0</Timestamp><DateUtc dt:dt=""string"">2018-07-13T19:49:04Z</DateUtc></StartTime><FrequencyChanges><FrequencyChange><Frequency dt:dt=""r8"">3020400</Frequency><Timestamp dt:dt=""r8"">305266439890</Timestamp><Current dt:dt=""r8"">0</Current><DateUtc dt:dt=""string"">2018-07-13T19:49:04Z</DateUtc></FrequencyChange></FrequencyChanges></Clock>\n"	000_R01_VA_allProc-005-1	60.022	1.0.0.178	1	324377412	Professional	2.0.10.356	2.0.10.356	07-13-2018	7/13/2018 7:49:04 PM	15:49:04	2.0.10.252	4	0	0	569435	9	569435	3999	-999999	739692	-3	729376	0	Run5Proc	4	1	4	RunList	3	HighSmallED	8000.0	0.0	643408.0	0.0	643408.0	0.0	643408.0	0.0	B5HighSmallEDBlockProc	n/a	n/a	n/a	n/a	n/a	n/a	n/a	n/a	n/a	n/a	n/a	n/a	3.0	1.0	3.0	Run5BlockList	1	n/a	n/a	n/a	n/a	n/a	n/a	n/a	n/a	n/a	n/a	n/a	n/a	n/a	n/a	n/a	n/a	n/a	n/a	n/a	n/a	n/a	n/a	n/a	n/a	n/a	n/a	n/a	1.0	1.0	1.0	n/a	n/a	n/a	n/a	n/a	n/a	n/a	n/a	n/a	n/a	n/a	n/a	n/a	n/a	n/a	n/a	n/a	n/a	n/a	n/a	n/a	n/a	n/a	n/a	n/a	n/a	n/a	n/a	n/a	n/a	n/a	n/a	n/a	n/a	n/a	n/a	n/a	n/a	n/a	n/a	n/a	n/a	n/a	n/a	n/a	n/a	n/a	n/a	n/a	n/a	n/a	n/a	n/a	n/a	n/a	n/a	n/a	n/a	n/a	n/a	B5_01.jpg	500	0	627914	-1	627914	0	TrialProc1	B5HighSmallEDBlockList	2500	0	625415	0	625415	-3	625415	2499	d	736	626151	55.981
59	2.5	000_R01_VA_allProc	5	1	"<?xml version=""1.0""?>\n<Clock xmlns:dt=""urn:schemas-microsoft-com:datatypes""><Description dt:dt=""string"">E-Prime Primary Realtime Clock</Description><StartTime><Timestamp dt:dt=""int"">0</Timestamp><DateUtc dt:dt=""string"">2018-07-13T19:49:04Z</DateUtc></StartTime><FrequencyChanges><FrequencyChange><Frequency dt:dt=""r8"">3020400</Frequency><Timestamp dt:dt=""r8"">305266439890</Timestamp><Current dt:dt=""r8"">0</Current><DateUtc dt:dt=""string"">2018-07-13T19:49:04Z</DateUtc></FrequencyChange></FrequencyChanges></Clock>\n"	000_R01_VA_allProc-005-1	60.022	1.0.0.178	1	324377412	Professional	2.0.10.356	2.0.10.356	07-13-2018	7/13/2018 7:49:04 PM	15:49:04	2.0.10.252	4	0	0	569435	9	569435	3999	-999999	739692	-3	729376	0	Run5Proc	4	1	4	RunList	3	HighSmallED	8000.0	0.0	643408.0	0.0	643408.0	0.0	643408.0	0.0	B5HighSmallEDBlockProc	n/a	n/a	n/a	n/a	n/a	n/a	n/a	n/a	n/a	n/a	n/a	n/a	3.0	1.0	3.0	Run5BlockList	2	n/a	n/a	n/a	n/a	n/a	n/a	n/a	n/a	n/a	n/a	n/a	n/a	n/a	n/a	n/a	n/a	n/a	n/a	n/a	n/a	n/a	n/a	n/a	n/a	n/a	n/a	n/a	2.0	1.0	2.0	n/a	n/a	n/a	n/a	n/a	n/a	n/a	n/a	n/a	n/a	n/a	n/a	n/a	n/a	n/a	n/a	n/a	n/a	n/a	n/a	n/a	n/a	n/a	n/a	n/a	n/a	n/a	n/a	n/a	n/a	n/a	n/a	n/a	n/a	n/a	n/a	n/a	n/a	n/a	n/a	n/a	n/a	n/a	n/a	n/a	n/a	n/a	n/a	n/a	n/a	n/a	n/a	n/a	n/a	n/a	n/a	n/a	n/a	n/a	n/a	B5_02.jpg	500	0	630913	-1	630913	0	TrialProc1	B5HighSmallEDBlockList	2500	0	628414	0	628414	0	628414	2499	d	1161	629575	58.98
62	2.5	000_R01_VA_allProc	5	1	"<?xml version=""1.0""?>\n<Clock xmlns:dt=""urn:schemas-microsoft-com:datatypes""><Description dt:dt=""string"">E-Prime Primary Realtime Clock</Description><StartTime><Timestamp dt:dt=""int"">0</Timestamp><DateUtc dt:dt=""string"">2018-07-13T19:49:04Z</DateUtc></StartTime><FrequencyChanges><FrequencyChange><Frequency dt:dt=""r8"">3020400</Frequency><Timestamp dt:dt=""r8"">305266439890</Timestamp><Current dt:dt=""r8"">0</Current><DateUtc dt:dt=""string"">2018-07-13T19:49:04Z</DateUtc></FrequencyChange></FrequencyChanges></Clock>\n"	000_R01_VA_allProc-005-1	60.022	1.0.0.178	1	324377412	Professional	2.0.10.356	2.0.10.356	07-13-2018	7/13/2018 7:49:04 PM	15:49:04	2.0.10.252	4	0	0	569435	9	569435	3999	-999999	739692	-3	729376	0	Run5Proc	4	1	4	RunList	3	HighSmallED	8000.0	0.0	643408.0	0.0	643408.0	0.0	643408.0	0.0	B5HighSmallEDBlockProc	n/a	n/a	n/a	n/a	n/a	n/a	n/a	n/a	n/a	n/a	n/a	n/a	3.0	1.0	3.0	Run5BlockList	3	n/a	n/a	n/a	n/a	n/a	n/a	n/a	n/a	n/a	n/a	n/a	n/a	n/a	n/a	n/a	n/a	n/a	n/a	n/a	n/a	n/a	n/a	n/a	n/a	n/a	n/a	n/a	3.0	1.0	3.0	n/a	n/a	n/a	n/a	n/a	n/a	n/a	n/a	n/a	n/a	n/a	n/a	n/a	n/a	n/a	n/a	n/a	n/a	n/a	n/a	n/a	n/a	n/a	n/a	n/a	n/a	n/a	n/a	n/a	n/a	n/a	n/a	n/a	n/a	n/a	n/a	n/a	n/a	n/a	n/a	n/a	n/a	n/a	n/a	n/a	n/a	n/a	n/a	n/a	n/a	n/a	n/a	n/a	n/a	n/a	n/a	n/a	n/a	n/a	n/a	B5_03.jpg	500	1	633912	-1	633911	0	TrialProc1	B5HighSmallEDBlockList	2500	0	631412	0	631412	-1	631412	2499	c	1315	632727	61.978
65	2.5	000_R01_VA_allProc	5	1	"<?xml version=""1.0""?>\n<Clock xmlns:dt=""urn:schemas-microsoft-com:datatypes""><Description dt:dt=""string"">E-Prime Primary Realtime Clock</Description><StartTime><Timestamp dt:dt=""int"">0</Timestamp><DateUtc dt:dt=""string"">2018-07-13T19:49:04Z</DateUtc></StartTime><FrequencyChanges><FrequencyChange><Frequency dt:dt=""r8"">3020400</Frequency><Timestamp dt:dt=""r8"">305266439890</Timestamp><Current dt:dt=""r8"">0</Current><DateUtc dt:dt=""string"">2018-07-13T19:49:04Z</DateUtc></FrequencyChange></FrequencyChanges></Clock>\n"	000_R01_VA_allProc-005-1	60.022	1.0.0.178	1	324377412	Professional	2.0.10.356	2.0.10.356	07-13-2018	7/13/2018 7:49:04 PM	15:49:04	2.0.10.252	4	0	0	569435	9	569435	3999	-999999	739692	-3	729376	0	Run5Proc	4	1	4	RunList	3	HighSmallED	8000.0	0.0	643408.0	0.0	643408.0	0.0	643408.0	0.0	B5HighSmallEDBlockProc	n/a	n/a	n/a	n/a	n/a	n/a	n/a	n/a	n/a	n/a	n/a	n/a	3.0	1.0	3.0	Run5BlockList	4	n/a	n/a	n/a	n/a	n/a	n/a	n/a	n/a	n/a	n/a	n/a	n/a	n/a	n/a	n/a	n/a	n/a	n/a	n/a	n/a	n/a	n/a	n/a	n/a	n/a	n/a	n/a	4.0	1.0	4.0	n/a	n/a	n/a	n/a	n/a	n/a	n/a	n/a	n/a	n/a	n/a	n/a	n/a	n/a	n/a	n/a	n/a	n/a	n/a	n/a	n/a	n/a	n/a	n/a	n/a	n/a	n/a	n/a	n/a	n/a	n/a	n/a	n/a	n/a	n/a	n/a	n/a	n/a	n/a	n/a	n/a	n/a	n/a	n/a	n/a	n/a	n/a	n/a	n/a	n/a	n/a	n/a	n/a	n/a	n/a	n/a	n/a	n/a	n/a	n/a	B5_04.jpg	500	0	636910	-1	636910	0	TrialProc1	B5HighSmallEDBlockList	2500	0	634411	0	634411	0	634411	2499	d	748	635159	64.977
68	2.5	000_R01_VA_allProc	5	1	"<?xml version=""1.0""?>\n<Clock xmlns:dt=""urn:schemas-microsoft-com:datatypes""><Description dt:dt=""string"">E-Prime Primary Realtime Clock</Description><StartTime><Timestamp dt:dt=""int"">0</Timestamp><DateUtc dt:dt=""string"">2018-07-13T19:49:04Z</DateUtc></StartTime><FrequencyChanges><FrequencyChange><Frequency dt:dt=""r8"">3020400</Frequency><Timestamp dt:dt=""r8"">305266439890</Timestamp><Current dt:dt=""r8"">0</Current><DateUtc dt:dt=""string"">2018-07-13T19:49:04Z</DateUtc></FrequencyChange></FrequencyChanges></Clock>\n"	000_R01_VA_allProc-005-1	60.022	1.0.0.178	1	324377412	Professional	2.0.10.356	2.0.10.356	07-13-2018	7/13/2018 7:49:04 PM	15:49:04	2.0.10.252	4	0	0	569435	9	569435	3999	-999999	739692	-3	729376	0	Run5Proc	4	1	4	RunList	3	HighSmallED	8000.0	0.0	643408.0	0.0	643408.0	0.0	643408.0	0.0	B5HighSmallEDBlockProc	n/a	n/a	n/a	n/a	n/a	n/a	n/a	n/a	n/a	n/a	n/a	n/a	3.0	1.0	3.0	Run5BlockList	5	n/a	n/a	n/a	n/a	n/a	n/a	n/a	n/a	n/a	n/a	n/a	n/a	n/a	n/a	n/a	n/a	n/a	n/a	n/a	n/a	n/a	n/a	n/a	n/a	n/a	n/a	n/a	5.0	1.0	5.0	n/a	n/a	n/a	n/a	n/a	n/a	n/a	n/a	n/a	n/a	n/a	n/a	n/a	n/a	n/a	n/a	n/a	n/a	n/a	n/a	n/a	n/a	n/a	n/a	n/a	n/a	n/a	n/a	n/a	n/a	n/a	n/a	n/a	n/a	n/a	n/a	n/a	n/a	n/a	n/a	n/a	n/a	n/a	n/a	n/a	n/a	n/a	n/a	n/a	n/a	n/a	n/a	n/a	n/a	n/a	n/a	n/a	n/a	n/a	n/a	B5_05.jpg	500	0	639909	-1	639909	0	TrialProc1	B5HighSmallEDBlockList	2500	0	637410	0	637410	0	637410	2499	c	981	638391	67.976
71	2.5	000_R01_VA_allProc	5	1	"<?xml version=""1.0""?>\n<Clock xmlns:dt=""urn:schemas-microsoft-com:datatypes""><Description dt:dt=""string"">E-Prime Primary Realtime Clock</Description><StartTime><Timestamp dt:dt=""int"">0</Timestamp><DateUtc dt:dt=""string"">2018-07-13T19:49:04Z</DateUtc></StartTime><FrequencyChanges><FrequencyChange><Frequency dt:dt=""r8"">3020400</Frequency><Timestamp dt:dt=""r8"">305266439890</Timestamp><Current dt:dt=""r8"">0</Current><DateUtc dt:dt=""string"">2018-07-13T19:49:04Z</DateUtc></FrequencyChange></FrequencyChanges></Clock>\n"	000_R01_VA_allProc-005-1	60.022	1.0.0.178	1	324377412	Professional	2.0.10.356	2.0.10.356	07-13-2018	7/13/2018 7:49:04 PM	15:49:04	2.0.10.252	4	0	0	569435	9	569435	3999	-999999	739692	-3	729376	0	Run5Proc	4	1	4	RunList	3	HighSmallED	8000.0	0.0	643408.0	0.0	643408.0	0.0	643408.0	0.0	B5HighSmallEDBlockProc	n/a	n/a	n/a	n/a	n/a	n/a	n/a	n/a	n/a	n/a	n/a	n/a	3.0	1.0	3.0	Run5BlockList	6	n/a	n/a	n/a	n/a	n/a	n/a	n/a	n/a	n/a	n/a	n/a	n/a	n/a	n/a	n/a	n/a	n/a	n/a	n/a	n/a	n/a	n/a	n/a	n/a	n/a	n/a	n/a	6.0	1.0	6.0	n/a	n/a	n/a	n/a	n/a	n/a	n/a	n/a	n/a	n/a	n/a	n/a	n/a	n/a	n/a	n/a	n/a	n/a	n/a	n/a	n/a	n/a	n/a	n/a	n/a	n/a	n/a	n/a	n/a	n/a	n/a	n/a	n/a	n/a	n/a	n/a	n/a	n/a	n/a	n/a	n/a	n/a	n/a	n/a	n/a	n/a	n/a	n/a	n/a	n/a	n/a	n/a	n/a	n/a	n/a	n/a	n/a	n/a	n/a	n/a	B5_06.jpg	500	0	642908	-1	642908	0	TrialProc1	B5HighSmallEDBlockList	2500	0	640409	0	640409	0	640409	2499	d	910	641319	70.975
82	2.5	000_R01_VA_allProc	5	1	"<?xml version=""1.0""?>\n<Clock xmlns:dt=""urn:schemas-microsoft-com:datatypes""><Description dt:dt=""string"">E-Prime Primary Realtime Clock</Description><StartTime><Timestamp dt:dt=""int"">0</Timestamp><DateUtc dt:dt=""string"">2018-07-13T19:49:04Z</DateUtc></StartTime><FrequencyChanges><FrequencyChange><Frequency dt:dt=""r8"">3020400</Frequency><Timestamp dt:dt=""r8"">305266439890</Timestamp><Current dt:dt=""r8"">0</Current><DateUtc dt:dt=""string"">2018-07-13T19:49:04Z</DateUtc></FrequencyChange></FrequencyChanges></Clock>\n"	000_R01_VA_allProc-005-1	60.022	1.0.0.178	1	324377412	Professional	2.0.10.356	2.0.10.356	07-13-2018	7/13/2018 7:49:04 PM	15:49:04	2.0.10.252	4	0	0	569435	9	569435	3999	-999999	739692	-3	729376	0	Run5Proc	4	1	4	RunList	4	OfficeLarge	8000.0	1.0	669399.0	1.0	669399.0	-1.0	669398.0	0.0	E5OfficeLargeBlockProc	n/a	n/a	n/a	n/a	n/a	n/a	n/a	n/a	n/a	n/a	n/a	n/a	4.0	1.0	4.0	Run5BlockList	1	n/a	n/a	n/a	n/a	n/a	n/a	n/a	n/a	n/a	n/a	n/a	n/a	n/a	n/a	n/a	n/a	n/a	n/a	n/a	n/a	n/a	n/a	n/a	n/a	n/a	n/a	n/a	n/a	n/a	n/a	n/a	n/a	n/a	n/a	n/a	n/a	n/a	n/a	n/a	n/a	n/a	n/a	n/a	n/a	n/a	n/a	n/a	n/a	n/a	n/a	n/a	n/a	n/a	n/a	n/a	n/a	n/a	n/a	n/a	n/a	n/a	n/a	n/a	n/a	n/a	n/a	n/a	n/a	n/a	n/a	n/a	n/a	1.0	1.0	1.0	n/a	n/a	n/a	n/a	n/a	n/a	n/a	n/a	n/a	n/a	n/a	n/a	n/a	n/a	n/a	E5_01.jpg	500	0	653904	-1	653904	0	TrialProc1	E5OfficeLargeBlockList	2500	0	651405	0	651405	-3	651405	2499	d	1370	652775	81.971
85	2.5	000_R01_VA_allProc	5	1	"<?xml version=""1.0""?>\n<Clock xmlns:dt=""urn:schemas-microsoft-com:datatypes""><Description dt:dt=""string"">E-Prime Primary Realtime Clock</Description><StartTime><Timestamp dt:dt=""int"">0</Timestamp><DateUtc dt:dt=""string"">2018-07-13T19:49:04Z</DateUtc></StartTime><FrequencyChanges><FrequencyChange><Frequency dt:dt=""r8"">3020400</Frequency><Timestamp dt:dt=""r8"">305266439890</Timestamp><Current dt:dt=""r8"">0</Current><DateUtc dt:dt=""string"">2018-07-13T19:49:04Z</DateUtc></FrequencyChange></FrequencyChanges></Clock>\n"	000_R01_VA_allProc-005-1	60.022	1.0.0.178	1	324377412	Professional	2.0.10.356	2.0.10.356	07-13-2018	7/13/2018 7:49:04 PM	15:49:04	2.0.10.252	4	0	0	569435	9	569435	3999	-999999	739692	-3	729376	0	Run5Proc	4	1	4	RunList	4	OfficeLarge	8000.0	1.0	669399.0	1.0	669399.0	-1.0	669398.0	0.0	E5OfficeLargeBlockProc	n/a	n/a	n/a	n/a	n/a	n/a	n/a	n/a	n/a	n/a	n/a	n/a	4.0	1.0	4.0	Run5BlockList	2	n/a	n/a	n/a	n/a	n/a	n/a	n/a	n/a	n/a	n/a	n/a	n/a	n/a	n/a	n/a	n/a	n/a	n/a	n/a	n/a	n/a	n/a	n/a	n/a	n/a	n/a	n/a	n/a	n/a	n/a	n/a	n/a	n/a	n/a	n/a	n/a	n/a	n/a	n/a	n/a	n/a	n/a	n/a	n/a	n/a	n/a	n/a	n/a	n/a	n/a	n/a	n/a	n/a	n/a	n/a	n/a	n/a	n/a	n/a	n/a	n/a	n/a	n/a	n/a	n/a	n/a	n/a	n/a	n/a	n/a	n/a	n/a	2.0	1.0	2.0	n/a	n/a	n/a	n/a	n/a	n/a	n/a	n/a	n/a	n/a	n/a	n/a	n/a	n/a	n/a	E5_02.jpg	500	0	656903	-1	656903	0	TrialProc1	E5OfficeLargeBlockList	2500	0	654404	0	654404	0	654404	2499	c	1323	655727	84.97
88	2.5	000_R01_VA_allProc	5	1	"<?xml version=""1.0""?>\n<Clock xmlns:dt=""urn:schemas-microsoft-com:datatypes""><Description dt:dt=""string"">E-Prime Primary Realtime Clock</Description><StartTime><Timestamp dt:dt=""int"">0</Timestamp><DateUtc dt:dt=""string"">2018-07-13T19:49:04Z</DateUtc></StartTime><FrequencyChanges><FrequencyChange><Frequency dt:dt=""r8"">3020400</Frequency><Timestamp dt:dt=""r8"">305266439890</Timestamp><Current dt:dt=""r8"">0</Current><DateUtc dt:dt=""string"">2018-07-13T19:49:04Z</DateUtc></FrequencyChange></FrequencyChanges></Clock>\n"	000_R01_VA_allProc-005-1	60.022	1.0.0.178	1	324377412	Professional	2.0.10.356	2.0.10.356	07-13-2018	7/13/2018 7:49:04 PM	15:49:04	2.0.10.252	4	0	0	569435	9	569435	3999	-999999	739692	-3	729376	0	Run5Proc	4	1	4	RunList	4	OfficeLarge	8000.0	1.0	669399.0	1.0	669399.0	-1.0	669398.0	0.0	E5OfficeLargeBlockProc	n/a	n/a	n/a	n/a	n/a	n/a	n/a	n/a	n/a	n/a	n/a	n/a	4.0	1.0	4.0	Run5BlockList	3	n/a	n/a	n/a	n/a	n/a	n/a	n/a	n/a	n/a	n/a	n/a	n/a	n/a	n/a	n/a	n/a	n/a	n/a	n/a	n/a	n/a	n/a	n/a	n/a	n/a	n/a	n/a	n/a	n/a	n/a	n/a	n/a	n/a	n/a	n/a	n/a	n/a	n/a	n/a	n/a	n/a	n/a	n/a	n/a	n/a	n/a	n/a	n/a	n/a	n/a	n/a	n/a	n/a	n/a	n/a	n/a	n/a	n/a	n/a	n/a	n/a	n/a	n/a	n/a	n/a	n/a	n/a	n/a	n/a	n/a	n/a	n/a	3.0	1.0	3.0	n/a	n/a	n/a	n/a	n/a	n/a	n/a	n/a	n/a	n/a	n/a	n/a	n/a	n/a	n/a	E5_03.jpg	500	0	659902	-1	659902	0	TrialProc1	E5OfficeLargeBlockList	2500	0	657403	0	657403	0	657403	2499	c	1708	659111	87.969
91	2.5	000_R01_VA_allProc	5	1	"<?xml version=""1.0""?>\n<Clock xmlns:dt=""urn:schemas-microsoft-com:datatypes""><Description dt:dt=""string"">E-Prime Primary Realtime Clock</Description><StartTime><Timestamp dt:dt=""int"">0</Timestamp><DateUtc dt:dt=""string"">2018-07-13T19:49:04Z</DateUtc></StartTime><FrequencyChanges><FrequencyChange><Frequency dt:dt=""r8"">3020400</Frequency><Timestamp dt:dt=""r8"">305266439890</Timestamp><Current dt:dt=""r8"">0</Current><DateUtc dt:dt=""string"">2018-07-13T19:49:04Z</DateUtc></FrequencyChange></FrequencyChanges></Clock>\n"	000_R01_VA_allProc-005-1	60.022	1.0.0.178	1	324377412	Professional	2.0.10.356	2.0.10.356	07-13-2018	7/13/2018 7:49:04 PM	15:49:04	2.0.10.252	4	0	0	569435	9	569435	3999	-999999	739692	-3	729376	0	Run5Proc	4	1	4	RunList	4	OfficeLarge	8000.0	1.0	669399.0	1.0	669399.0	-1.0	669398.0	0.0	E5OfficeLargeBlockProc	n/a	n/a	n/a	n/a	n/a	n/a	n/a	n/a	n/a	n/a	n/a	n/a	4.0	1.0	4.0	Run5BlockList	4	n/a	n/a	n/a	n/a	n/a	n/a	n/a	n/a	n/a	n/a	n/a	n/a	n/a	n/a	n/a	n/a	n/a	n/a	n/a	n/a	n/a	n/a	n/a	n/a	n/a	n/a	n/a	n/a	n/a	n/a	n/a	n/a	n/a	n/a	n/a	n/a	n/a	n/a	n/a	n/a	n/a	n/a	n/a	n/a	n/a	n/a	n/a	n/a	n/a	n/a	n/a	n/a	n/a	n/a	n/a	n/a	n/a	n/a	n/a	n/a	n/a	n/a	n/a	n/a	n/a	n/a	n/a	n/a	n/a	n/a	n/a	n/a	4.0	1.0	4.0	n/a	n/a	n/a	n/a	n/a	n/a	n/a	n/a	n/a	n/a	n/a	n/a	n/a	n/a	n/a	E5_04.jpg	500	0	662901	-1	662901	0	TrialProc1	E5OfficeLargeBlockList	2500	0	660402	0	660402	0	660402	2499	c	1621	662023	90.968
94	2.5	000_R01_VA_allProc	5	1	"<?xml version=""1.0""?>\n<Clock xmlns:dt=""urn:schemas-microsoft-com:datatypes""><Description dt:dt=""string"">E-Prime Primary Realtime Clock</Description><StartTime><Timestamp dt:dt=""int"">0</Timestamp><DateUtc dt:dt=""string"">2018-07-13T19:49:04Z</DateUtc></StartTime><FrequencyChanges><FrequencyChange><Frequency dt:dt=""r8"">3020400</Frequency><Timestamp dt:dt=""r8"">305266439890</Timestamp><Current dt:dt=""r8"">0</Current><DateUtc dt:dt=""string"">2018-07-13T19:49:04Z</DateUtc></FrequencyChange></FrequencyChanges></Clock>\n"	000_R01_VA_allProc-005-1	60.022	1.0.0.178	1	324377412	Professional	2.0.10.356	2.0.10.356	07-13-2018	7/13/2018 7:49:04 PM	15:49:04	2.0.10.252	4	0	0	569435	9	569435	3999	-999999	739692	-3	729376	0	Run5Proc	4	1	4	RunList	4	OfficeLarge	8000.0	1.0	669399.0	1.0	669399.0	-1.0	669398.0	0.0	E5OfficeLargeBlockProc	n/a	n/a	n/a	n/a	n/a	n/a	n/a	n/a	n/a	n/a	n/a	n/a	4.0	1.0	4.0	Run5BlockList	5	n/a	n/a	n/a	n/a	n/a	n/a	n/a	n/a	n/a	n/a	n/a	n/a	n/a	n/a	n/a	n/a	n/a	n/a	n/a	n/a	n/a	n/a	n/a	n/a	n/a	n/a	n/a	n/a	n/a	n/a	n/a	n/a	n/a	n/a	n/a	n/a	n/a	n/a	n/a	n/a	n/a	n/a	n/a	n/a	n/a	n/a	n/a	n/a	n/a	n/a	n/a	n/a	n/a	n/a	n/a	n/a	n/a	n/a	n/a	n/a	n/a	n/a	n/a	n/a	n/a	n/a	n/a	n/a	n/a	n/a	n/a	n/a	5.0	1.0	5.0	n/a	n/a	n/a	n/a	n/a	n/a	n/a	n/a	n/a	n/a	n/a	n/a	n/a	n/a	n/a	E5_05.jpg	500	0	665900	-1	665900	0	TrialProc1	E5OfficeLargeBlockList	2500	0	663401	0	663401	0	663401	2499	c	1926	665327	93.967
97	2.5	000_R01_VA_allProc	5	1	"<?xml version=""1.0""?>\n<Clock xmlns:dt=""urn:schemas-microsoft-com:datatypes""><Description dt:dt=""string"">E-Prime Primary Realtime Clock</Description><StartTime><Timestamp dt:dt=""int"">0</Timestamp><DateUtc dt:dt=""string"">2018-07-13T19:49:04Z</DateUtc></StartTime><FrequencyChanges><FrequencyChange><Frequency dt:dt=""r8"">3020400</Frequency><Timestamp dt:dt=""r8"">305266439890</Timestamp><Current dt:dt=""r8"">0</Current><DateUtc dt:dt=""string"">2018-07-13T19:49:04Z</DateUtc></FrequencyChange></FrequencyChanges></Clock>\n"	000_R01_VA_allProc-005-1	60.022	1.0.0.178	1	324377412	Professional	2.0.10.356	2.0.10.356	07-13-2018	7/13/2018 7:49:04 PM	15:49:04	2.0.10.252	4	0	0	569435	9	569435	3999	-999999	739692	-3	729376	0	Run5Proc	4	1	4	RunList	4	OfficeLarge	8000.0	1.0	669399.0	1.0	669399.0	-1.0	669398.0	0.0	E5OfficeLargeBlockProc	n/a	n/a	n/a	n/a	n/a	n/a	n/a	n/a	n/a	n/a	n/a	n/a	4.0	1.0	4.0	Run5BlockList	6	n/a	n/a	n/a	n/a	n/a	n/a	n/a	n/a	n/a	n/a	n/a	n/a	n/a	n/a	n/a	n/a	n/a	n/a	n/a	n/a	n/a	n/a	n/a	n/a	n/a	n/a	n/a	n/a	n/a	n/a	n/a	n/a	n/a	n/a	n/a	n/a	n/a	n/a	n/a	n/a	n/a	n/a	n/a	n/a	n/a	n/a	n/a	n/a	n/a	n/a	n/a	n/a	n/a	n/a	n/a	n/a	n/a	n/a	n/a	n/a	n/a	n/a	n/a	n/a	n/a	n/a	n/a	n/a	n/a	n/a	n/a	n/a	6.0	1.0	6.0	n/a	n/a	n/a	n/a	n/a	n/a	n/a	n/a	n/a	n/a	n/a	n/a	n/a	n/a	n/a	E5_06.jpg	500	0	668899	0	668899	0	TrialProc1	E5OfficeLargeBlockList	2500	1	666400	1	666400	-1	666399	2500	c	1807	668206	96.965
108	2.5	000_R01_VA_allProc	5	1	"<?xml version=""1.0""?>\n<Clock xmlns:dt=""urn:schemas-microsoft-com:datatypes""><Description dt:dt=""string"">E-Prime Primary Realtime Clock</Description><StartTime><Timestamp dt:dt=""int"">0</Timestamp><DateUtc dt:dt=""string"">2018-07-13T19:49:04Z</DateUtc></StartTime><FrequencyChanges><FrequencyChange><Frequency dt:dt=""r8"">3020400</Frequency><Timestamp dt:dt=""r8"">305266439890</Timestamp><Current dt:dt=""r8"">0</Current><DateUtc dt:dt=""string"">2018-07-13T19:49:04Z</DateUtc></FrequencyChange></FrequencyChanges></Clock>\n"	000_R01_VA_allProc-005-1	60.022	1.0.0.178	1	324377412	Professional	2.0.10.356	2.0.10.356	07-13-2018	7/13/2018 7:49:04 PM	15:49:04	2.0.10.252	4	0	0	569435	9	569435	3999	-999999	739692	-3	729376	0	Run5Proc	4	1	4	RunList	5	HighLargeED	8000.0	0.0	695389.0	0.0	695389.0	0.0	695389.0	0.0	A5HighLargeEDBlockProc	n/a	n/a	n/a	n/a	n/a	n/a	n/a	n/a	n/a	n/a	n/a	n/a	5.0	1.0	5.0	Run5BlockList	1	n/a	n/a	n/a	n/a	n/a	n/a	n/a	n/a	n/a	n/a	n/a	n/a	1.0	1.0	1.0	n/a	n/a	n/a	n/a	n/a	n/a	n/a	n/a	n/a	n/a	n/a	n/a	n/a	n/a	n/a	n/a	n/a	n/a	n/a	n/a	n/a	n/a	n/a	n/a	n/a	n/a	n/a	n/a	n/a	n/a	n/a	n/a	n/a	n/a	n/a	n/a	n/a	n/a	n/a	n/a	n/a	n/a	n/a	n/a	n/a	n/a	n/a	n/a	n/a	n/a	n/a	n/a	n/a	n/a	n/a	n/a	n/a	n/a	n/a	n/a	n/a	n/a	n/a	n/a	n/a	n/a	n/a	n/a	n/a	n/a	n/a	n/a	n/a	n/a	n/a	A5_01.jpg	500	1	679895	-1	679894	0	TrialProc1	A5HighLargeEDBlockList	2500	0	677396	0	677395	-3	677395	2499	d	979	678374	107.961
111	2.5	000_R01_VA_allProc	5	1	"<?xml version=""1.0""?>\n<Clock xmlns:dt=""urn:schemas-microsoft-com:datatypes""><Description dt:dt=""string"">E-Prime Primary Realtime Clock</Description><StartTime><Timestamp dt:dt=""int"">0</Timestamp><DateUtc dt:dt=""string"">2018-07-13T19:49:04Z</DateUtc></StartTime><FrequencyChanges><FrequencyChange><Frequency dt:dt=""r8"">3020400</Frequency><Timestamp dt:dt=""r8"">305266439890</Timestamp><Current dt:dt=""r8"">0</Current><DateUtc dt:dt=""string"">2018-07-13T19:49:04Z</DateUtc></FrequencyChange></FrequencyChanges></Clock>\n"	000_R01_VA_allProc-005-1	60.022	1.0.0.178	1	324377412	Professional	2.0.10.356	2.0.10.356	07-13-2018	7/13/2018 7:49:04 PM	15:49:04	2.0.10.252	4	0	0	569435	9	569435	3999	-999999	739692	-3	729376	0	Run5Proc	4	1	4	RunList	5	HighLargeED	8000.0	0.0	695389.0	0.0	695389.0	0.0	695389.0	0.0	A5HighLargeEDBlockProc	n/a	n/a	n/a	n/a	n/a	n/a	n/a	n/a	n/a	n/a	n/a	n/a	5.0	1.0	5.0	Run5BlockList	2	n/a	n/a	n/a	n/a	n/a	n/a	n/a	n/a	n/a	n/a	n/a	n/a	2.0	1.0	2.0	n/a	n/a	n/a	n/a	n/a	n/a	n/a	n/a	n/a	n/a	n/a	n/a	n/a	n/a	n/a	n/a	n/a	n/a	n/a	n/a	n/a	n/a	n/a	n/a	n/a	n/a	n/a	n/a	n/a	n/a	n/a	n/a	n/a	n/a	n/a	n/a	n/a	n/a	n/a	n/a	n/a	n/a	n/a	n/a	n/a	n/a	n/a	n/a	n/a	n/a	n/a	n/a	n/a	n/a	n/a	n/a	n/a	n/a	n/a	n/a	n/a	n/a	n/a	n/a	n/a	n/a	n/a	n/a	n/a	n/a	n/a	n/a	n/a	n/a	n/a	A5_02.jpg	500	0	682893	-1	682893	0	TrialProc1	A5HighLargeEDBlockList	2500	0	680394	0	680394	0	680394	2499	d	964	681358	110.96
114	2.5	000_R01_VA_allProc	5	1	"<?xml version=""1.0""?>\n<Clock xmlns:dt=""urn:schemas-microsoft-com:datatypes""><Description dt:dt=""string"">E-Prime Primary Realtime Clock</Description><StartTime><Timestamp dt:dt=""int"">0</Timestamp><DateUtc dt:dt=""string"">2018-07-13T19:49:04Z</DateUtc></StartTime><FrequencyChanges><FrequencyChange><Frequency dt:dt=""r8"">3020400</Frequency><Timestamp dt:dt=""r8"">305266439890</Timestamp><Current dt:dt=""r8"">0</Current><DateUtc dt:dt=""string"">2018-07-13T19:49:04Z</DateUtc></FrequencyChange></FrequencyChanges></Clock>\n"	000_R01_VA_allProc-005-1	60.022	1.0.0.178	1	324377412	Professional	2.0.10.356	2.0.10.356	07-13-2018	7/13/2018 7:49:04 PM	15:49:04	2.0.10.252	4	0	0	569435	9	569435	3999	-999999	739692	-3	729376	0	Run5Proc	4	1	4	RunList	5	HighLargeED	8000.0	0.0	695389.0	0.0	695389.0	0.0	695389.0	0.0	A5HighLargeEDBlockProc	n/a	n/a	n/a	n/a	n/a	n/a	n/a	n/a	n/a	n/a	n/a	n/a	5.0	1.0	5.0	Run5BlockList	3	n/a	n/a	n/a	n/a	n/a	n/a	n/a	n/a	n/a	n/a	n/a	n/a	3.0	1.0	3.0	n/a	n/a	n/a	n/a	n/a	n/a	n/a	n/a	n/a	n/a	n/a	n/a	n/a	n/a	n/a	n/a	n/a	n/a	n/a	n/a	n/a	n/a	n/a	n/a	n/a	n/a	n/a	n/a	n/a	n/a	n/a	n/a	n/a	n/a	n/a	n/a	n/a	n/a	n/a	n/a	n/a	n/a	n/a	n/a	n/a	n/a	n/a	n/a	n/a	n/a	n/a	n/a	n/a	n/a	n/a	n/a	n/a	n/a	n/a	n/a	n/a	n/a	n/a	n/a	n/a	n/a	n/a	n/a	n/a	n/a	n/a	n/a	n/a	n/a	n/a	A5_03.jpg	500	0	685892	-1	685892	0	TrialProc1	A5HighLargeEDBlockList	2500	0	683393	0	683393	0	683393	2499	d	1157	684550	113.959
117	2.5	000_R01_VA_allProc	5	1	"<?xml version=""1.0""?>\n<Clock xmlns:dt=""urn:schemas-microsoft-com:datatypes""><Description dt:dt=""string"">E-Prime Primary Realtime Clock</Description><StartTime><Timestamp dt:dt=""int"">0</Timestamp><DateUtc dt:dt=""string"">2018-07-13T19:49:04Z</DateUtc></StartTime><FrequencyChanges><FrequencyChange><Frequency dt:dt=""r8"">3020400</Frequency><Timestamp dt:dt=""r8"">305266439890</Timestamp><Current dt:dt=""r8"">0</Current><DateUtc dt:dt=""string"">2018-07-13T19:49:04Z</DateUtc></FrequencyChange></FrequencyChanges></Clock>\n"	000_R01_VA_allProc-005-1	60.022	1.0.0.178	1	324377412	Professional	2.0.10.356	2.0.10.356	07-13-2018	7/13/2018 7:49:04 PM	15:49:04	2.0.10.252	4	0	0	569435	9	569435	3999	-999999	739692	-3	729376	0	Run5Proc	4	1	4	RunList	5	HighLargeED	8000.0	0.0	695389.0	0.0	695389.0	0.0	695389.0	0.0	A5HighLargeEDBlockProc	n/a	n/a	n/a	n/a	n/a	n/a	n/a	n/a	n/a	n/a	n/a	n/a	5.0	1.0	5.0	Run5BlockList	4	n/a	n/a	n/a	n/a	n/a	n/a	n/a	n/a	n/a	n/a	n/a	n/a	4.0	1.0	4.0	n/a	n/a	n/a	n/a	n/a	n/a	n/a	n/a	n/a	n/a	n/a	n/a	n/a	n/a	n/a	n/a	n/a	n/a	n/a	n/a	n/a	n/a	n/a	n/a	n/a	n/a	n/a	n/a	n/a	n/a	n/a	n/a	n/a	n/a	n/a	n/a	n/a	n/a	n/a	n/a	n/a	n/a	n/a	n/a	n/a	n/a	n/a	n/a	n/a	n/a	n/a	n/a	n/a	n/a	n/a	n/a	n/a	n/a	n/a	n/a	n/a	n/a	n/a	n/a	n/a	n/a	n/a	n/a	n/a	n/a	n/a	n/a	n/a	n/a	n/a	A5_04.jpg	500	0	688891	-1	688891	0	TrialProc1	A5HighLargeEDBlockList	2500	0	686392	0	686392	0	686392	2499	c	910	687302	116.958
120	2.5	000_R01_VA_allProc	5	1	"<?xml version=""1.0""?>\n<Clock xmlns:dt=""urn:schemas-microsoft-com:datatypes""><Description dt:dt=""string"">E-Prime Primary Realtime Clock</Description><StartTime><Timestamp dt:dt=""int"">0</Timestamp><DateUtc dt:dt=""string"">2018-07-13T19:49:04Z</DateUtc></StartTime><FrequencyChanges><FrequencyChange><Frequency dt:dt=""r8"">3020400</Frequency><Timestamp dt:dt=""r8"">305266439890</Timestamp><Current dt:dt=""r8"">0</Current><DateUtc dt:dt=""string"">2018-07-13T19:49:04Z</DateUtc></FrequencyChange></FrequencyChanges></Clock>\n"	000_R01_VA_allProc-005-1	60.022	1.0.0.178	1	324377412	Professional	2.0.10.356	2.0.10.356	07-13-2018	7/13/2018 7:49:04 PM	15:49:04	2.0.10.252	4	0	0	569435	9	569435	3999	-999999	739692	-3	729376	0	Run5Proc	4	1	4	RunList	5	HighLargeED	8000.0	0.0	695389.0	0.0	695389.0	0.0	695389.0	0.0	A5HighLargeEDBlockProc	n/a	n/a	n/a	n/a	n/a	n/a	n/a	n/a	n/a	n/a	n/a	n/a	5.0	1.0	5.0	Run5BlockList	5	n/a	n/a	n/a	n/a	n/a	n/a	n/a	n/a	n/a	n/a	n/a	n/a	5.0	1.0	5.0	n/a	n/a	n/a	n/a	n/a	n/a	n/a	n/a	n/a	n/a	n/a	n/a	n/a	n/a	n/a	n/a	n/a	n/a	n/a	n/a	n/a	n/a	n/a	n/a	n/a	n/a	n/a	n/a	n/a	n/a	n/a	n/a	n/a	n/a	n/a	n/a	n/a	n/a	n/a	n/a	n/a	n/a	n/a	n/a	n/a	n/a	n/a	n/a	n/a	n/a	n/a	n/a	n/a	n/a	n/a	n/a	n/a	n/a	n/a	n/a	n/a	n/a	n/a	n/a	n/a	n/a	n/a	n/a	n/a	n/a	n/a	n/a	n/a	n/a	n/a	A5_05.jpg	500	0	691890	-1	691890	0	TrialProc1	A5HighLargeEDBlockList	2500	0	689391	0	689391	0	689391	2499	d	1031	690422	119.957
123	2.5	000_R01_VA_allProc	5	1	"<?xml version=""1.0""?>\n<Clock xmlns:dt=""urn:schemas-microsoft-com:datatypes""><Description dt:dt=""string"">E-Prime Primary Realtime Clock</Description><StartTime><Timestamp dt:dt=""int"">0</Timestamp><DateUtc dt:dt=""string"">2018-07-13T19:49:04Z</DateUtc></StartTime><FrequencyChanges><FrequencyChange><Frequency dt:dt=""r8"">3020400</Frequency><Timestamp dt:dt=""r8"">305266439890</Timestamp><Current dt:dt=""r8"">0</Current><DateUtc dt:dt=""string"">2018-07-13T19:49:04Z</DateUtc></FrequencyChange></FrequencyChanges></Clock>\n"	000_R01_VA_allProc-005-1	60.022	1.0.0.178	1	324377412	Professional	2.0.10.356	2.0.10.356	07-13-2018	7/13/2018 7:49:04 PM	15:49:04	2.0.10.252	4	0	0	569435	9	569435	3999	-999999	739692	-3	729376	0	Run5Proc	4	1	4	RunList	5	HighLargeED	8000.0	0.0	695389.0	0.0	695389.0	0.0	695389.0	0.0	A5HighLargeEDBlockProc	n/a	n/a	n/a	n/a	n/a	n/a	n/a	n/a	n/a	n/a	n/a	n/a	5.0	1.0	5.0	Run5BlockList	6	n/a	n/a	n/a	n/a	n/a	n/a	n/a	n/a	n/a	n/a	n/a	n/a	6.0	1.0	6.0	n/a	n/a	n/a	n/a	n/a	n/a	n/a	n/a	n/a	n/a	n/a	n/a	n/a	n/a	n/a	n/a	n/a	n/a	n/a	n/a	n/a	n/a	n/a	n/a	n/a	n/a	n/a	n/a	n/a	n/a	n/a	n/a	n/a	n/a	n/a	n/a	n/a	n/a	n/a	n/a	n/a	n/a	n/a	n/a	n/a	n/a	n/a	n/a	n/a	n/a	n/a	n/a	n/a	n/a	n/a	n/a	n/a	n/a	n/a	n/a	n/a	n/a	n/a	n/a	n/a	n/a	n/a	n/a	n/a	n/a	n/a	n/a	n/a	n/a	n/a	A5_06.jpg	500	0	694889	-1	694889	0	TrialProc1	A5HighLargeEDBlockList	2500	0	692390	0	692390	0	692390	2499	c	1512	693902	122.956
134	2.5	000_R01_VA_allProc	5	1	"<?xml version=""1.0""?>\n<Clock xmlns:dt=""urn:schemas-microsoft-com:datatypes""><Description dt:dt=""string"">E-Prime Primary Realtime Clock</Description><StartTime><Timestamp dt:dt=""int"">0</Timestamp><DateUtc dt:dt=""string"">2018-07-13T19:49:04Z</DateUtc></StartTime><FrequencyChanges><FrequencyChange><Frequency dt:dt=""r8"">3020400</Frequency><Timestamp dt:dt=""r8"">305266439890</Timestamp><Current dt:dt=""r8"">0</Current><DateUtc dt:dt=""string"">2018-07-13T19:49:04Z</DateUtc></FrequencyChange></FrequencyChanges></Clock>\n"	000_R01_VA_allProc-005-1	60.022	1.0.0.178	1	324377412	Professional	2.0.10.356	2.0.10.356	07-13-2018	7/13/2018 7:49:04 PM	15:49:04	2.0.10.252	4	0	0	569435	9	569435	3999	-999999	739692	-3	729376	0	Run5Proc	4	1	4	RunList	6	LowSmallED	8000.0	0.0	721379.0	0.0	721379.0	0.0	721379.0	0.0	D5LowSmallEDBlockProc	n/a	n/a	n/a	n/a	n/a	n/a	n/a	n/a	n/a	n/a	n/a	n/a	6.0	1.0	6.0	Run5BlockList	1	n/a	n/a	n/a	n/a	n/a	n/a	n/a	n/a	n/a	n/a	n/a	n/a	n/a	n/a	n/a	n/a	n/a	n/a	n/a	n/a	n/a	n/a	n/a	n/a	n/a	n/a	n/a	n/a	n/a	n/a	n/a	n/a	n/a	n/a	n/a	n/a	n/a	n/a	n/a	n/a	n/a	n/a	n/a	n/a	n/a	n/a	n/a	n/a	n/a	n/a	n/a	n/a	n/a	n/a	n/a	n/a	n/a	1.0	1.0	1.0	n/a	n/a	n/a	n/a	n/a	n/a	n/a	n/a	n/a	n/a	n/a	n/a	n/a	n/a	n/a	n/a	n/a	n/a	n/a	n/a	n/a	n/a	n/a	n/a	n/a	n/a	n/a	n/a	n/a	n/a	D5_01.jpg	500	0	705885	-1	705885	0	TrialProc1	D5LowSmallEDBlockList	2500	0	703386	0	703386	-3	703386	2499	d	1164	704550	133.952
137	2.5	000_R01_VA_allProc	5	1	"<?xml version=""1.0""?>\n<Clock xmlns:dt=""urn:schemas-microsoft-com:datatypes""><Description dt:dt=""string"">E-Prime Primary Realtime Clock</Description><StartTime><Timestamp dt:dt=""int"">0</Timestamp><DateUtc dt:dt=""string"">2018-07-13T19:49:04Z</DateUtc></StartTime><FrequencyChanges><FrequencyChange><Frequency dt:dt=""r8"">3020400</Frequency><Timestamp dt:dt=""r8"">305266439890</Timestamp><Current dt:dt=""r8"">0</Current><DateUtc dt:dt=""string"">2018-07-13T19:49:04Z</DateUtc></FrequencyChange></FrequencyChanges></Clock>\n"	000_R01_VA_allProc-005-1	60.022	1.0.0.178	1	324377412	Professional	2.0.10.356	2.0.10.356	07-13-2018	7/13/2018 7:49:04 PM	15:49:04	2.0.10.252	4	0	0	569435	9	569435	3999	-999999	739692	-3	729376	0	Run5Proc	4	1	4	RunList	6	LowSmallED	8000.0	0.0	721379.0	0.0	721379.0	0.0	721379.0	0.0	D5LowSmallEDBlockProc	n/a	n/a	n/a	n/a	n/a	n/a	n/a	n/a	n/a	n/a	n/a	n/a	6.0	1.0	6.0	Run5BlockList	2	n/a	n/a	n/a	n/a	n/a	n/a	n/a	n/a	n/a	n/a	n/a	n/a	n/a	n/a	n/a	n/a	n/a	n/a	n/a	n/a	n/a	n/a	n/a	n/a	n/a	n/a	n/a	n/a	n/a	n/a	n/a	n/a	n/a	n/a	n/a	n/a	n/a	n/a	n/a	n/a	n/a	n/a	n/a	n/a	n/a	n/a	n/a	n/a	n/a	n/a	n/a	n/a	n/a	n/a	n/a	n/a	n/a	2.0	1.0	2.0	n/a	n/a	n/a	n/a	n/a	n/a	n/a	n/a	n/a	n/a	n/a	n/a	n/a	n/a	n/a	n/a	n/a	n/a	n/a	n/a	n/a	n/a	n/a	n/a	n/a	n/a	n/a	n/a	n/a	n/a	D5_02.jpg	500	0	708884	-1	708884	0	TrialProc1	D5LowSmallEDBlockList	2500	0	706385	0	706385	0	706385	2499	n/a	0	0	136.951
140	2.5	000_R01_VA_allProc	5	1	"<?xml version=""1.0""?>\n<Clock xmlns:dt=""urn:schemas-microsoft-com:datatypes""><Description dt:dt=""string"">E-Prime Primary Realtime Clock</Description><StartTime><Timestamp dt:dt=""int"">0</Timestamp><DateUtc dt:dt=""string"">2018-07-13T19:49:04Z</DateUtc></StartTime><FrequencyChanges><FrequencyChange><Frequency dt:dt=""r8"">3020400</Frequency><Timestamp dt:dt=""r8"">305266439890</Timestamp><Current dt:dt=""r8"">0</Current><DateUtc dt:dt=""string"">2018-07-13T19:49:04Z</DateUtc></FrequencyChange></FrequencyChanges></Clock>\n"	000_R01_VA_allProc-005-1	60.022	1.0.0.178	1	324377412	Professional	2.0.10.356	2.0.10.356	07-13-2018	7/13/2018 7:49:04 PM	15:49:04	2.0.10.252	4	0	0	569435	9	569435	3999	-999999	739692	-3	729376	0	Run5Proc	4	1	4	RunList	6	LowSmallED	8000.0	0.0	721379.0	0.0	721379.0	0.0	721379.0	0.0	D5LowSmallEDBlockProc	n/a	n/a	n/a	n/a	n/a	n/a	n/a	n/a	n/a	n/a	n/a	n/a	6.0	1.0	6.0	Run5BlockList	3	n/a	n/a	n/a	n/a	n/a	n/a	n/a	n/a	n/a	n/a	n/a	n/a	n/a	n/a	n/a	n/a	n/a	n/a	n/a	n/a	n/a	n/a	n/a	n/a	n/a	n/a	n/a	n/a	n/a	n/a	n/a	n/a	n/a	n/a	n/a	n/a	n/a	n/a	n/a	n/a	n/a	n/a	n/a	n/a	n/a	n/a	n/a	n/a	n/a	n/a	n/a	n/a	n/a	n/a	n/a	n/a	n/a	3.0	1.0	3.0	n/a	n/a	n/a	n/a	n/a	n/a	n/a	n/a	n/a	n/a	n/a	n/a	n/a	n/a	n/a	n/a	n/a	n/a	n/a	n/a	n/a	n/a	n/a	n/a	n/a	n/a	n/a	n/a	n/a	n/a	D5_03.jpg	500	0	711883	-1	711883	0	TrialProc1	D5LowSmallEDBlockList	2500	0	709384	0	709384	0	709384	2499	c	2486	711870	139.95
143	2.5	000_R01_VA_allProc	5	1	"<?xml version=""1.0""?>\n<Clock xmlns:dt=""urn:schemas-microsoft-com:datatypes""><Description dt:dt=""string"">E-Prime Primary Realtime Clock</Description><StartTime><Timestamp dt:dt=""int"">0</Timestamp><DateUtc dt:dt=""string"">2018-07-13T19:49:04Z</DateUtc></StartTime><FrequencyChanges><FrequencyChange><Frequency dt:dt=""r8"">3020400</Frequency><Timestamp dt:dt=""r8"">305266439890</Timestamp><Current dt:dt=""r8"">0</Current><DateUtc dt:dt=""string"">2018-07-13T19:49:04Z</DateUtc></FrequencyChange></FrequencyChanges></Clock>\n"	000_R01_VA_allProc-005-1	60.022	1.0.0.178	1	324377412	Professional	2.0.10.356	2.0.10.356	07-13-2018	7/13/2018 7:49:04 PM	15:49:04	2.0.10.252	4	0	0	569435	9	569435	3999	-999999	739692	-3	729376	0	Run5Proc	4	1	4	RunList	6	LowSmallED	8000.0	0.0	721379.0	0.0	721379.0	0.0	721379.0	0.0	D5LowSmallEDBlockProc	n/a	n/a	n/a	n/a	n/a	n/a	n/a	n/a	n/a	n/a	n/a	n/a	6.0	1.0	6.0	Run5BlockList	4	n/a	n/a	n/a	n/a	n/a	n/a	n/a	n/a	n/a	n/a	n/a	n/a	n/a	n/a	n/a	n/a	n/a	n/a	n/a	n/a	n/a	n/a	n/a	n/a	n/a	n/a	n/a	n/a	n/a	n/a	n/a	n/a	n/a	n/a	n/a	n/a	n/a	n/a	n/a	n/a	n/a	n/a	n/a	n/a	n/a	n/a	n/a	n/a	n/a	n/a	n/a	n/a	n/a	n/a	n/a	n/a	n/a	4.0	1.0	4.0	n/a	n/a	n/a	n/a	n/a	n/a	n/a	n/a	n/a	n/a	n/a	n/a	n/a	n/a	n/a	n/a	n/a	n/a	n/a	n/a	n/a	n/a	n/a	n/a	n/a	n/a	n/a	n/a	n/a	n/a	D5_04.jpg	500	0	714882	-1	714882	0	TrialProc1	D5LowSmallEDBlockList	2500	0	712383	0	712383	0	712383	2499	d	847	713230	142.949
146	2.5	000_R01_VA_allProc	5	1	"<?xml version=""1.0""?>\n<Clock xmlns:dt=""urn:schemas-microsoft-com:datatypes""><Description dt:dt=""string"">E-Prime Primary Realtime Clock</Description><StartTime><Timestamp dt:dt=""int"">0</Timestamp><DateUtc dt:dt=""string"">2018-07-13T19:49:04Z</DateUtc></StartTime><FrequencyChanges><FrequencyChange><Frequency dt:dt=""r8"">3020400</Frequency><Timestamp dt:dt=""r8"">305266439890</Timestamp><Current dt:dt=""r8"">0</Current><DateUtc dt:dt=""string"">2018-07-13T19:49:04Z</DateUtc></FrequencyChange></FrequencyChanges></Clock>\n"	000_R01_VA_allProc-005-1	60.022	1.0.0.178	1	324377412	Professional	2.0.10.356	2.0.10.356	07-13-2018	7/13/2018 7:49:04 PM	15:49:04	2.0.10.252	4	0	0	569435	9	569435	3999	-999999	739692	-3	729376	0	Run5Proc	4	1	4	RunList	6	LowSmallED	8000.0	0.0	721379.0	0.0	721379.0	0.0	721379.0	0.0	D5LowSmallEDBlockProc	n/a	n/a	n/a	n/a	n/a	n/a	n/a	n/a	n/a	n/a	n/a	n/a	6.0	1.0	6.0	Run5BlockList	5	n/a	n/a	n/a	n/a	n/a	n/a	n/a	n/a	n/a	n/a	n/a	n/a	n/a	n/a	n/a	n/a	n/a	n/a	n/a	n/a	n/a	n/a	n/a	n/a	n/a	n/a	n/a	n/a	n/a	n/a	n/a	n/a	n/a	n/a	n/a	n/a	n/a	n/a	n/a	n/a	n/a	n/a	n/a	n/a	n/a	n/a	n/a	n/a	n/a	n/a	n/a	n/a	n/a	n/a	n/a	n/a	n/a	5.0	1.0	5.0	n/a	n/a	n/a	n/a	n/a	n/a	n/a	n/a	n/a	n/a	n/a	n/a	n/a	n/a	n/a	n/a	n/a	n/a	n/a	n/a	n/a	n/a	n/a	n/a	n/a	n/a	n/a	n/a	n/a	n/a	D5_05.jpg	500	1	717881	-1	717880	0	TrialProc1	D5LowSmallEDBlockList	2500	0	715381	0	715381	-1	715381	2499	d	1841	717222	145.947
149	2.5	000_R01_VA_allProc	5	1	"<?xml version=""1.0""?>\n<Clock xmlns:dt=""urn:schemas-microsoft-com:datatypes""><Description dt:dt=""string"">E-Prime Primary Realtime Clock</Description><StartTime><Timestamp dt:dt=""int"">0</Timestamp><DateUtc dt:dt=""string"">2018-07-13T19:49:04Z</DateUtc></StartTime><FrequencyChanges><FrequencyChange><Frequency dt:dt=""r8"">3020400</Frequency><Timestamp dt:dt=""r8"">305266439890</Timestamp><Current dt:dt=""r8"">0</Current><DateUtc dt:dt=""string"">2018-07-13T19:49:04Z</DateUtc></FrequencyChange></FrequencyChanges></Clock>\n"	000_R01_VA_allProc-005-1	60.022	1.0.0.178	1	324377412	Professional	2.0.10.356	2.0.10.356	07-13-2018	7/13/2018 7:49:04 PM	15:49:04	2.0.10.252	4	0	0	569435	9	569435	3999	-999999	739692	-3	729376	0	Run5Proc	4	1	4	RunList	6	LowSmallED	8000.0	0.0	721379.0	0.0	721379.0	0.0	721379.0	0.0	D5LowSmallEDBlockProc	n/a	n/a	n/a	n/a	n/a	n/a	n/a	n/a	n/a	n/a	n/a	n/a	6.0	1.0	6.0	Run5BlockList	6	n/a	n/a	n/a	n/a	n/a	n/a	n/a	n/a	n/a	n/a	n/a	n/a	n/a	n/a	n/a	n/a	n/a	n/a	n/a	n/a	n/a	n/a	n/a	n/a	n/a	n/a	n/a	n/a	n/a	n/a	n/a	n/a	n/a	n/a	n/a	n/a	n/a	n/a	n/a	n/a	n/a	n/a	n/a	n/a	n/a	n/a	n/a	n/a	n/a	n/a	n/a	n/a	n/a	n/a	n/a	n/a	n/a	6.0	1.0	6.0	n/a	n/a	n/a	n/a	n/a	n/a	n/a	n/a	n/a	n/a	n/a	n/a	n/a	n/a	n/a	n/a	n/a	n/a	n/a	n/a	n/a	n/a	n/a	n/a	n/a	n/a	n/a	n/a	n/a	n/a	D5_06.jpg	500	0	720879	-1	720879	0	TrialProc1	D5LowSmallEDBlockList	2500	0	718380	0	718380	0	718380	2499	d	1378	719758	148.946
