onset	duration	experiment_name	sub	ses	clock_information	datafile_basename	display_refreshrate	experiment_version	group	randomseed	runtime_capabilities	runtime_version	runtimeversionexpected	session_date	session_start_date_time_utc	session_time	studio_version	block	fixation2trs_durationerror	fixation2trs_offsetdelay	fixation2trs_offsettime	fixation2trs_onsetdelay	fixation2trs_onsettime	fixation2trs_onsettoonsettime	goodwork_durationerror	goodwork_finishtime	goodwork_onsetdelay	goodwork_onsettime	goodwork_onsettoonsettime	procedure_block	runlist	runlist_cycle	runlist_sample	running_block	trial	condition	interblockinterval_duration	interblockinterval_durationerror	interblockinterval_finishtime	interblockinterval_offsetdelay	interblockinterval_offsettime	interblockinterval_onsetdelay	interblockinterval_onsettime	interblockinterval_onsettoonsettime	procedure_trial	run1blocklist	run1blocklist_cycle	run1blocklist_sample	run2blocklist	run2blocklist_cycle	run2blocklist_sample	run3blocklist	run3blocklist_cycle	run3blocklist_sample	run4blocklist	run4blocklist_cycle	run4blocklist_sample	run5blocklist	run5blocklist_cycle	run5blocklist_sample	running_trial	subtrial	a1highlargeedblocklist	a1highlargeedblocklist_cycle	a1highlargeedblocklist_sample	a2highlargeedblocklist	a2highlargeedblocklist_cycle	a2highlargeedblocklist_sample	a3highlargeedblocklist	a3highlargeedblocklist_cycle	a3highlargeedblocklist_sample	a4highlargeedblocklist	a4highlargeedblocklist_cycle	a4highlargeedblocklist_sample	a5highlargeedblocklist	a5highlargeedblocklist_cycle	a5highlargeedblocklist_sample	b1highsmalledblocklist	b1highsmalledblocklist_cycle	b1highsmalledblocklist_sample	b2highsmalledblocklist	b2highsmalledblocklist_cycle	b2highsmalledblocklist_sample	b3highsmalledblocklist	b3highsmalledblocklist_cycle	b3highsmalledblocklist_sample	b4highsmalledblocklist	b4highsmalledblocklist_cycle	b4highsmalledblocklist_sample	b5highsmalledblocklist	b5highsmalledblocklist_cycle	b5highsmalledblocklist_sample	c1lowlargeedblocklist	c1lowlargeedblocklist_cycle	c1lowlargeedblocklist_sample	c2lowlargeedblocklist	c2lowlargeedblocklist_cycle	c2lowlargeedblocklist_sample	c3lowlargeedblocklist	c3lowlargeedblocklist_cycle	c3lowlargeedblocklist_sample	c4lowlargeedblocklist	c4lowlargeedblocklist_cycle	c4lowlargeedblocklist_sample	c5lowlargeedblocklist	c5lowlargeedblocklist_cycle	c5lowlargeedblocklist_sample	d1lowsmalledblocklist	d1lowsmalledblocklist_cycle	d1lowsmalledblocklist_sample	d2highlargeedblocklist	d2highlargeedblocklist_cycle	d2highlargeedblocklist_sample	d3lowsmalledblocklist	d3lowsmalledblocklist_cycle	d3lowsmalledblocklist_sample	d4lowsmalledblocklist	d4lowsmalledblocklist_cycle	d4lowsmalledblocklist_sample	d5lowsmalledblocklist	d5lowsmalledblocklist_cycle	d5lowsmalledblocklist_sample	e1officelargeblocklist	e1officelargeblocklist_cycle	e1officelargeblocklist_sample	e2officelargeblocklist	e2officelargeblocklist_cycle	e2officelargeblocklist_sample	e3officelargeblocklist	e3officelargeblocklist_cycle	e3officelargeblocklist_sample	e4officelargeblocklist	e4officelargeblocklist_cycle	e4officelargeblocklist_sample	e5officelargeblocklist	e5officelargeblocklist_cycle	e5officelargeblocklist_sample	f1officesmallblocklist	f1officesmallblocklist_cycle	f1officesmallblocklist_sample	f2officesmallblocklist	f2officesmallblocklist_cycle	f2officesmallblocklist_sample	f3officesmallblocklist	f3officesmallblocklist_cycle	f3officesmallblocklist_sample	f4officesmallblocklist	f4officesmallblocklist_cycle	f4officesmallblocklist_sample	f5officesmallblocklist	f5officesmallblocklist_cycle	f5officesmallblocklist_sample	filename	isi_duration	isi_durationerror	isi_finishtime	isi_onsetdelay	isi_onsettime	isi_onsettoonsettime	procedure_subtrial	running_subtrial	stimslide_duration	stimslide_durationerror	stimslide_finishtime	stimslide_offsetdelay	stimslide_offsettime	stimslide_onsetdelay	stimslide_onsettime	stimslide_onsettoonsettime	stimslide_resp	stimslide_rt	stimslide_rttime	onset_unrounded
4	2.5	000_R01_VB_allProc	52	1	"<?xml version=""1.0""?>\n<Clock xmlns:dt=""urn:schemas-microsoft-com:datatypes""><Description dt:dt=""string"">E-Prime Primary Realtime Clock</Description><StartTime><Timestamp dt:dt=""int"">0</Timestamp><DateUtc dt:dt=""string"">2019-04-01T20:24:00Z</DateUtc></StartTime><FrequencyChanges><FrequencyChange><Frequency dt:dt=""r8"">3020400</Frequency><Timestamp dt:dt=""r8"">1631428738333</Timestamp><Current dt:dt=""r8"">0</Current><DateUtc dt:dt=""string"">2019-04-01T20:24:00Z</DateUtc></FrequencyChange></FrequencyChanges></Clock>\n"	000_R01_VB_allProc-52-1	60.022	1.0.0.185	1	-658246391	Professional	2.0.10.356	2.0.10.356	04-01-2019	4/1/2019 8:24:00 PM	16:24:00	2.0.10.252	4	0	0	606700	17	606700	3999	-999999	773634	-3	766641	0	Run3Proc	4	1	4	RunList	1	LowSmallED	8000	0	628692	0	628692	0	628692	0	D3LowSmallEDBlockProc	n/a	n/a	n/a	n/a	n/a	n/a	1.0	1.0	1.0	n/a	n/a	n/a	n/a	n/a	n/a	Run3BlockList	1	n/a	n/a	n/a	n/a	n/a	n/a	n/a	n/a	n/a	n/a	n/a	n/a	n/a	n/a	n/a	n/a	n/a	n/a	n/a	n/a	n/a	n/a	n/a	n/a	n/a	n/a	n/a	n/a	n/a	n/a	n/a	n/a	n/a	n/a	n/a	n/a	n/a	n/a	n/a	n/a	n/a	n/a	n/a	n/a	n/a	n/a	n/a	n/a	n/a	n/a	n/a	1.0	1.0	1.0	n/a	n/a	n/a	n/a	n/a	n/a	n/a	n/a	n/a	n/a	n/a	n/a	n/a	n/a	n/a	n/a	n/a	n/a	n/a	n/a	n/a	n/a	n/a	n/a	n/a	n/a	n/a	n/a	n/a	n/a	n/a	n/a	n/a	n/a	n/a	n/a	D3_01.jpg	500	0	613198	-1	613198	0	TrialProc1	D3LowSmallEDBlockList	2500	0	610699	0	610699	-1	610699	2499	d	1874	612573	4.0
7	2.5	000_R01_VB_allProc	52	1	"<?xml version=""1.0""?>\n<Clock xmlns:dt=""urn:schemas-microsoft-com:datatypes""><Description dt:dt=""string"">E-Prime Primary Realtime Clock</Description><StartTime><Timestamp dt:dt=""int"">0</Timestamp><DateUtc dt:dt=""string"">2019-04-01T20:24:00Z</DateUtc></StartTime><FrequencyChanges><FrequencyChange><Frequency dt:dt=""r8"">3020400</Frequency><Timestamp dt:dt=""r8"">1631428738333</Timestamp><Current dt:dt=""r8"">0</Current><DateUtc dt:dt=""string"">2019-04-01T20:24:00Z</DateUtc></FrequencyChange></FrequencyChanges></Clock>\n"	000_R01_VB_allProc-52-1	60.022	1.0.0.185	1	-658246391	Professional	2.0.10.356	2.0.10.356	04-01-2019	4/1/2019 8:24:00 PM	16:24:00	2.0.10.252	4	0	0	606700	17	606700	3999	-999999	773634	-3	766641	0	Run3Proc	4	1	4	RunList	1	LowSmallED	8000	0	628692	0	628692	0	628692	0	D3LowSmallEDBlockProc	n/a	n/a	n/a	n/a	n/a	n/a	1.0	1.0	1.0	n/a	n/a	n/a	n/a	n/a	n/a	Run3BlockList	2	n/a	n/a	n/a	n/a	n/a	n/a	n/a	n/a	n/a	n/a	n/a	n/a	n/a	n/a	n/a	n/a	n/a	n/a	n/a	n/a	n/a	n/a	n/a	n/a	n/a	n/a	n/a	n/a	n/a	n/a	n/a	n/a	n/a	n/a	n/a	n/a	n/a	n/a	n/a	n/a	n/a	n/a	n/a	n/a	n/a	n/a	n/a	n/a	n/a	n/a	n/a	2.0	1.0	2.0	n/a	n/a	n/a	n/a	n/a	n/a	n/a	n/a	n/a	n/a	n/a	n/a	n/a	n/a	n/a	n/a	n/a	n/a	n/a	n/a	n/a	n/a	n/a	n/a	n/a	n/a	n/a	n/a	n/a	n/a	n/a	n/a	n/a	n/a	n/a	n/a	D3_02.jpg	500	0	616197	-1	616197	0	TrialProc1	D3LowSmallEDBlockList	2500	0	613698	0	613698	0	613698	2499	d	1115	614813	6.9990000000000006
10	2.5	000_R01_VB_allProc	52	1	"<?xml version=""1.0""?>\n<Clock xmlns:dt=""urn:schemas-microsoft-com:datatypes""><Description dt:dt=""string"">E-Prime Primary Realtime Clock</Description><StartTime><Timestamp dt:dt=""int"">0</Timestamp><DateUtc dt:dt=""string"">2019-04-01T20:24:00Z</DateUtc></StartTime><FrequencyChanges><FrequencyChange><Frequency dt:dt=""r8"">3020400</Frequency><Timestamp dt:dt=""r8"">1631428738333</Timestamp><Current dt:dt=""r8"">0</Current><DateUtc dt:dt=""string"">2019-04-01T20:24:00Z</DateUtc></FrequencyChange></FrequencyChanges></Clock>\n"	000_R01_VB_allProc-52-1	60.022	1.0.0.185	1	-658246391	Professional	2.0.10.356	2.0.10.356	04-01-2019	4/1/2019 8:24:00 PM	16:24:00	2.0.10.252	4	0	0	606700	17	606700	3999	-999999	773634	-3	766641	0	Run3Proc	4	1	4	RunList	1	LowSmallED	8000	0	628692	0	628692	0	628692	0	D3LowSmallEDBlockProc	n/a	n/a	n/a	n/a	n/a	n/a	1.0	1.0	1.0	n/a	n/a	n/a	n/a	n/a	n/a	Run3BlockList	3	n/a	n/a	n/a	n/a	n/a	n/a	n/a	n/a	n/a	n/a	n/a	n/a	n/a	n/a	n/a	n/a	n/a	n/a	n/a	n/a	n/a	n/a	n/a	n/a	n/a	n/a	n/a	n/a	n/a	n/a	n/a	n/a	n/a	n/a	n/a	n/a	n/a	n/a	n/a	n/a	n/a	n/a	n/a	n/a	n/a	n/a	n/a	n/a	n/a	n/a	n/a	3.0	1.0	3.0	n/a	n/a	n/a	n/a	n/a	n/a	n/a	n/a	n/a	n/a	n/a	n/a	n/a	n/a	n/a	n/a	n/a	n/a	n/a	n/a	n/a	n/a	n/a	n/a	n/a	n/a	n/a	n/a	n/a	n/a	n/a	n/a	n/a	n/a	n/a	n/a	D3_03.jpg	500	0	619196	-1	619196	0	TrialProc1	D3LowSmallEDBlockList	2500	0	616697	0	616697	0	616697	2499	c	1708	618405	9.998000000000001
13	2.5	000_R01_VB_allProc	52	1	"<?xml version=""1.0""?>\n<Clock xmlns:dt=""urn:schemas-microsoft-com:datatypes""><Description dt:dt=""string"">E-Prime Primary Realtime Clock</Description><StartTime><Timestamp dt:dt=""int"">0</Timestamp><DateUtc dt:dt=""string"">2019-04-01T20:24:00Z</DateUtc></StartTime><FrequencyChanges><FrequencyChange><Frequency dt:dt=""r8"">3020400</Frequency><Timestamp dt:dt=""r8"">1631428738333</Timestamp><Current dt:dt=""r8"">0</Current><DateUtc dt:dt=""string"">2019-04-01T20:24:00Z</DateUtc></FrequencyChange></FrequencyChanges></Clock>\n"	000_R01_VB_allProc-52-1	60.022	1.0.0.185	1	-658246391	Professional	2.0.10.356	2.0.10.356	04-01-2019	4/1/2019 8:24:00 PM	16:24:00	2.0.10.252	4	0	0	606700	17	606700	3999	-999999	773634	-3	766641	0	Run3Proc	4	1	4	RunList	1	LowSmallED	8000	0	628692	0	628692	0	628692	0	D3LowSmallEDBlockProc	n/a	n/a	n/a	n/a	n/a	n/a	1.0	1.0	1.0	n/a	n/a	n/a	n/a	n/a	n/a	Run3BlockList	4	n/a	n/a	n/a	n/a	n/a	n/a	n/a	n/a	n/a	n/a	n/a	n/a	n/a	n/a	n/a	n/a	n/a	n/a	n/a	n/a	n/a	n/a	n/a	n/a	n/a	n/a	n/a	n/a	n/a	n/a	n/a	n/a	n/a	n/a	n/a	n/a	n/a	n/a	n/a	n/a	n/a	n/a	n/a	n/a	n/a	n/a	n/a	n/a	n/a	n/a	n/a	4.0	1.0	4.0	n/a	n/a	n/a	n/a	n/a	n/a	n/a	n/a	n/a	n/a	n/a	n/a	n/a	n/a	n/a	n/a	n/a	n/a	n/a	n/a	n/a	n/a	n/a	n/a	n/a	n/a	n/a	n/a	n/a	n/a	n/a	n/a	n/a	n/a	n/a	n/a	D3_04.jpg	500	0	622195	-1	622195	0	TrialProc1	D3LowSmallEDBlockList	2500	0	619696	0	619696	0	619696	2499	d	1813	621509	12.997
16	2.5	000_R01_VB_allProc	52	1	"<?xml version=""1.0""?>\n<Clock xmlns:dt=""urn:schemas-microsoft-com:datatypes""><Description dt:dt=""string"">E-Prime Primary Realtime Clock</Description><StartTime><Timestamp dt:dt=""int"">0</Timestamp><DateUtc dt:dt=""string"">2019-04-01T20:24:00Z</DateUtc></StartTime><FrequencyChanges><FrequencyChange><Frequency dt:dt=""r8"">3020400</Frequency><Timestamp dt:dt=""r8"">1631428738333</Timestamp><Current dt:dt=""r8"">0</Current><DateUtc dt:dt=""string"">2019-04-01T20:24:00Z</DateUtc></FrequencyChange></FrequencyChanges></Clock>\n"	000_R01_VB_allProc-52-1	60.022	1.0.0.185	1	-658246391	Professional	2.0.10.356	2.0.10.356	04-01-2019	4/1/2019 8:24:00 PM	16:24:00	2.0.10.252	4	0	0	606700	17	606700	3999	-999999	773634	-3	766641	0	Run3Proc	4	1	4	RunList	1	LowSmallED	8000	0	628692	0	628692	0	628692	0	D3LowSmallEDBlockProc	n/a	n/a	n/a	n/a	n/a	n/a	1.0	1.0	1.0	n/a	n/a	n/a	n/a	n/a	n/a	Run3BlockList	5	n/a	n/a	n/a	n/a	n/a	n/a	n/a	n/a	n/a	n/a	n/a	n/a	n/a	n/a	n/a	n/a	n/a	n/a	n/a	n/a	n/a	n/a	n/a	n/a	n/a	n/a	n/a	n/a	n/a	n/a	n/a	n/a	n/a	n/a	n/a	n/a	n/a	n/a	n/a	n/a	n/a	n/a	n/a	n/a	n/a	n/a	n/a	n/a	n/a	n/a	n/a	5.0	1.0	5.0	n/a	n/a	n/a	n/a	n/a	n/a	n/a	n/a	n/a	n/a	n/a	n/a	n/a	n/a	n/a	n/a	n/a	n/a	n/a	n/a	n/a	n/a	n/a	n/a	n/a	n/a	n/a	n/a	n/a	n/a	n/a	n/a	n/a	n/a	n/a	n/a	D3_05.jpg	500	0	625194	0	625194	0	TrialProc1	D3LowSmallEDBlockList	2500	1	622695	1	622695	-1	622694	2500	d	1455	624149	15.995
19	2.5	000_R01_VB_allProc	52	1	"<?xml version=""1.0""?>\n<Clock xmlns:dt=""urn:schemas-microsoft-com:datatypes""><Description dt:dt=""string"">E-Prime Primary Realtime Clock</Description><StartTime><Timestamp dt:dt=""int"">0</Timestamp><DateUtc dt:dt=""string"">2019-04-01T20:24:00Z</DateUtc></StartTime><FrequencyChanges><FrequencyChange><Frequency dt:dt=""r8"">3020400</Frequency><Timestamp dt:dt=""r8"">1631428738333</Timestamp><Current dt:dt=""r8"">0</Current><DateUtc dt:dt=""string"">2019-04-01T20:24:00Z</DateUtc></FrequencyChange></FrequencyChanges></Clock>\n"	000_R01_VB_allProc-52-1	60.022	1.0.0.185	1	-658246391	Professional	2.0.10.356	2.0.10.356	04-01-2019	4/1/2019 8:24:00 PM	16:24:00	2.0.10.252	4	0	0	606700	17	606700	3999	-999999	773634	-3	766641	0	Run3Proc	4	1	4	RunList	1	LowSmallED	8000	0	628692	0	628692	0	628692	0	D3LowSmallEDBlockProc	n/a	n/a	n/a	n/a	n/a	n/a	1.0	1.0	1.0	n/a	n/a	n/a	n/a	n/a	n/a	Run3BlockList	6	n/a	n/a	n/a	n/a	n/a	n/a	n/a	n/a	n/a	n/a	n/a	n/a	n/a	n/a	n/a	n/a	n/a	n/a	n/a	n/a	n/a	n/a	n/a	n/a	n/a	n/a	n/a	n/a	n/a	n/a	n/a	n/a	n/a	n/a	n/a	n/a	n/a	n/a	n/a	n/a	n/a	n/a	n/a	n/a	n/a	n/a	n/a	n/a	n/a	n/a	n/a	6.0	1.0	6.0	n/a	n/a	n/a	n/a	n/a	n/a	n/a	n/a	n/a	n/a	n/a	n/a	n/a	n/a	n/a	n/a	n/a	n/a	n/a	n/a	n/a	n/a	n/a	n/a	n/a	n/a	n/a	n/a	n/a	n/a	n/a	n/a	n/a	n/a	n/a	n/a	D3_06.jpg	500	0	628193	-1	628192	0	TrialProc1	D3LowSmallEDBlockList	2500	0	625693	0	625693	-1	625693	2499	c	1568	627261	18.994
30	2.5	000_R01_VB_allProc	52	1	"<?xml version=""1.0""?>\n<Clock xmlns:dt=""urn:schemas-microsoft-com:datatypes""><Description dt:dt=""string"">E-Prime Primary Realtime Clock</Description><StartTime><Timestamp dt:dt=""int"">0</Timestamp><DateUtc dt:dt=""string"">2019-04-01T20:24:00Z</DateUtc></StartTime><FrequencyChanges><FrequencyChange><Frequency dt:dt=""r8"">3020400</Frequency><Timestamp dt:dt=""r8"">1631428738333</Timestamp><Current dt:dt=""r8"">0</Current><DateUtc dt:dt=""string"">2019-04-01T20:24:00Z</DateUtc></FrequencyChange></FrequencyChanges></Clock>\n"	000_R01_VB_allProc-52-1	60.022	1.0.0.185	1	-658246391	Professional	2.0.10.356	2.0.10.356	04-01-2019	4/1/2019 8:24:00 PM	16:24:00	2.0.10.252	4	0	0	606700	17	606700	3999	-999999	773634	-3	766641	0	Run3Proc	4	1	4	RunList	2	OfficeLarge	8000	0	654683	0	654683	0	654683	0	E3OfficeLargeBlockProc	n/a	n/a	n/a	n/a	n/a	n/a	2.0	1.0	2.0	n/a	n/a	n/a	n/a	n/a	n/a	Run3BlockList	1	n/a	n/a	n/a	n/a	n/a	n/a	n/a	n/a	n/a	n/a	n/a	n/a	n/a	n/a	n/a	n/a	n/a	n/a	n/a	n/a	n/a	n/a	n/a	n/a	n/a	n/a	n/a	n/a	n/a	n/a	n/a	n/a	n/a	n/a	n/a	n/a	n/a	n/a	n/a	n/a	n/a	n/a	n/a	n/a	n/a	n/a	n/a	n/a	n/a	n/a	n/a	n/a	n/a	n/a	n/a	n/a	n/a	n/a	n/a	n/a	n/a	n/a	n/a	n/a	n/a	n/a	1.0	1.0	1.0	n/a	n/a	n/a	n/a	n/a	n/a	n/a	n/a	n/a	n/a	n/a	n/a	n/a	n/a	n/a	n/a	n/a	n/a	n/a	n/a	n/a	E3_01.jpg	500	0	639188	-1	639188	0	TrialProc1	E3OfficeLargeBlockList	2500	0	636689	0	636689	-3	636689	2499	c	1364	638053	29.99
33	2.5	000_R01_VB_allProc	52	1	"<?xml version=""1.0""?>\n<Clock xmlns:dt=""urn:schemas-microsoft-com:datatypes""><Description dt:dt=""string"">E-Prime Primary Realtime Clock</Description><StartTime><Timestamp dt:dt=""int"">0</Timestamp><DateUtc dt:dt=""string"">2019-04-01T20:24:00Z</DateUtc></StartTime><FrequencyChanges><FrequencyChange><Frequency dt:dt=""r8"">3020400</Frequency><Timestamp dt:dt=""r8"">1631428738333</Timestamp><Current dt:dt=""r8"">0</Current><DateUtc dt:dt=""string"">2019-04-01T20:24:00Z</DateUtc></FrequencyChange></FrequencyChanges></Clock>\n"	000_R01_VB_allProc-52-1	60.022	1.0.0.185	1	-658246391	Professional	2.0.10.356	2.0.10.356	04-01-2019	4/1/2019 8:24:00 PM	16:24:00	2.0.10.252	4	0	0	606700	17	606700	3999	-999999	773634	-3	766641	0	Run3Proc	4	1	4	RunList	2	OfficeLarge	8000	0	654683	0	654683	0	654683	0	E3OfficeLargeBlockProc	n/a	n/a	n/a	n/a	n/a	n/a	2.0	1.0	2.0	n/a	n/a	n/a	n/a	n/a	n/a	Run3BlockList	2	n/a	n/a	n/a	n/a	n/a	n/a	n/a	n/a	n/a	n/a	n/a	n/a	n/a	n/a	n/a	n/a	n/a	n/a	n/a	n/a	n/a	n/a	n/a	n/a	n/a	n/a	n/a	n/a	n/a	n/a	n/a	n/a	n/a	n/a	n/a	n/a	n/a	n/a	n/a	n/a	n/a	n/a	n/a	n/a	n/a	n/a	n/a	n/a	n/a	n/a	n/a	n/a	n/a	n/a	n/a	n/a	n/a	n/a	n/a	n/a	n/a	n/a	n/a	n/a	n/a	n/a	2.0	1.0	2.0	n/a	n/a	n/a	n/a	n/a	n/a	n/a	n/a	n/a	n/a	n/a	n/a	n/a	n/a	n/a	n/a	n/a	n/a	n/a	n/a	n/a	E3_02.jpg	500	0	642187	-1	642187	0	TrialProc1	E3OfficeLargeBlockList	2500	0	639688	0	639688	0	639688	2499	c	845	640533	32.989000000000004
36	2.5	000_R01_VB_allProc	52	1	"<?xml version=""1.0""?>\n<Clock xmlns:dt=""urn:schemas-microsoft-com:datatypes""><Description dt:dt=""string"">E-Prime Primary Realtime Clock</Description><StartTime><Timestamp dt:dt=""int"">0</Timestamp><DateUtc dt:dt=""string"">2019-04-01T20:24:00Z</DateUtc></StartTime><FrequencyChanges><FrequencyChange><Frequency dt:dt=""r8"">3020400</Frequency><Timestamp dt:dt=""r8"">1631428738333</Timestamp><Current dt:dt=""r8"">0</Current><DateUtc dt:dt=""string"">2019-04-01T20:24:00Z</DateUtc></FrequencyChange></FrequencyChanges></Clock>\n"	000_R01_VB_allProc-52-1	60.022	1.0.0.185	1	-658246391	Professional	2.0.10.356	2.0.10.356	04-01-2019	4/1/2019 8:24:00 PM	16:24:00	2.0.10.252	4	0	0	606700	17	606700	3999	-999999	773634	-3	766641	0	Run3Proc	4	1	4	RunList	2	OfficeLarge	8000	0	654683	0	654683	0	654683	0	E3OfficeLargeBlockProc	n/a	n/a	n/a	n/a	n/a	n/a	2.0	1.0	2.0	n/a	n/a	n/a	n/a	n/a	n/a	Run3BlockList	3	n/a	n/a	n/a	n/a	n/a	n/a	n/a	n/a	n/a	n/a	n/a	n/a	n/a	n/a	n/a	n/a	n/a	n/a	n/a	n/a	n/a	n/a	n/a	n/a	n/a	n/a	n/a	n/a	n/a	n/a	n/a	n/a	n/a	n/a	n/a	n/a	n/a	n/a	n/a	n/a	n/a	n/a	n/a	n/a	n/a	n/a	n/a	n/a	n/a	n/a	n/a	n/a	n/a	n/a	n/a	n/a	n/a	n/a	n/a	n/a	n/a	n/a	n/a	n/a	n/a	n/a	3.0	1.0	3.0	n/a	n/a	n/a	n/a	n/a	n/a	n/a	n/a	n/a	n/a	n/a	n/a	n/a	n/a	n/a	n/a	n/a	n/a	n/a	n/a	n/a	E3_03.jpg	500	0	645186	-1	645186	0	TrialProc1	E3OfficeLargeBlockList	2500	0	642687	0	642687	0	642687	2499	c	1206	643893	35.988
39	2.5	000_R01_VB_allProc	52	1	"<?xml version=""1.0""?>\n<Clock xmlns:dt=""urn:schemas-microsoft-com:datatypes""><Description dt:dt=""string"">E-Prime Primary Realtime Clock</Description><StartTime><Timestamp dt:dt=""int"">0</Timestamp><DateUtc dt:dt=""string"">2019-04-01T20:24:00Z</DateUtc></StartTime><FrequencyChanges><FrequencyChange><Frequency dt:dt=""r8"">3020400</Frequency><Timestamp dt:dt=""r8"">1631428738333</Timestamp><Current dt:dt=""r8"">0</Current><DateUtc dt:dt=""string"">2019-04-01T20:24:00Z</DateUtc></FrequencyChange></FrequencyChanges></Clock>\n"	000_R01_VB_allProc-52-1	60.022	1.0.0.185	1	-658246391	Professional	2.0.10.356	2.0.10.356	04-01-2019	4/1/2019 8:24:00 PM	16:24:00	2.0.10.252	4	0	0	606700	17	606700	3999	-999999	773634	-3	766641	0	Run3Proc	4	1	4	RunList	2	OfficeLarge	8000	0	654683	0	654683	0	654683	0	E3OfficeLargeBlockProc	n/a	n/a	n/a	n/a	n/a	n/a	2.0	1.0	2.0	n/a	n/a	n/a	n/a	n/a	n/a	Run3BlockList	4	n/a	n/a	n/a	n/a	n/a	n/a	n/a	n/a	n/a	n/a	n/a	n/a	n/a	n/a	n/a	n/a	n/a	n/a	n/a	n/a	n/a	n/a	n/a	n/a	n/a	n/a	n/a	n/a	n/a	n/a	n/a	n/a	n/a	n/a	n/a	n/a	n/a	n/a	n/a	n/a	n/a	n/a	n/a	n/a	n/a	n/a	n/a	n/a	n/a	n/a	n/a	n/a	n/a	n/a	n/a	n/a	n/a	n/a	n/a	n/a	n/a	n/a	n/a	n/a	n/a	n/a	4.0	1.0	4.0	n/a	n/a	n/a	n/a	n/a	n/a	n/a	n/a	n/a	n/a	n/a	n/a	n/a	n/a	n/a	n/a	n/a	n/a	n/a	n/a	n/a	E3_04.jpg	500	0	648185	-1	648185	0	TrialProc1	E3OfficeLargeBlockList	2500	0	645686	0	645686	0	645686	2499	c	1151	646837	38.987
42	2.5	000_R01_VB_allProc	52	1	"<?xml version=""1.0""?>\n<Clock xmlns:dt=""urn:schemas-microsoft-com:datatypes""><Description dt:dt=""string"">E-Prime Primary Realtime Clock</Description><StartTime><Timestamp dt:dt=""int"">0</Timestamp><DateUtc dt:dt=""string"">2019-04-01T20:24:00Z</DateUtc></StartTime><FrequencyChanges><FrequencyChange><Frequency dt:dt=""r8"">3020400</Frequency><Timestamp dt:dt=""r8"">1631428738333</Timestamp><Current dt:dt=""r8"">0</Current><DateUtc dt:dt=""string"">2019-04-01T20:24:00Z</DateUtc></FrequencyChange></FrequencyChanges></Clock>\n"	000_R01_VB_allProc-52-1	60.022	1.0.0.185	1	-658246391	Professional	2.0.10.356	2.0.10.356	04-01-2019	4/1/2019 8:24:00 PM	16:24:00	2.0.10.252	4	0	0	606700	17	606700	3999	-999999	773634	-3	766641	0	Run3Proc	4	1	4	RunList	2	OfficeLarge	8000	0	654683	0	654683	0	654683	0	E3OfficeLargeBlockProc	n/a	n/a	n/a	n/a	n/a	n/a	2.0	1.0	2.0	n/a	n/a	n/a	n/a	n/a	n/a	Run3BlockList	5	n/a	n/a	n/a	n/a	n/a	n/a	n/a	n/a	n/a	n/a	n/a	n/a	n/a	n/a	n/a	n/a	n/a	n/a	n/a	n/a	n/a	n/a	n/a	n/a	n/a	n/a	n/a	n/a	n/a	n/a	n/a	n/a	n/a	n/a	n/a	n/a	n/a	n/a	n/a	n/a	n/a	n/a	n/a	n/a	n/a	n/a	n/a	n/a	n/a	n/a	n/a	n/a	n/a	n/a	n/a	n/a	n/a	n/a	n/a	n/a	n/a	n/a	n/a	n/a	n/a	n/a	5.0	1.0	5.0	n/a	n/a	n/a	n/a	n/a	n/a	n/a	n/a	n/a	n/a	n/a	n/a	n/a	n/a	n/a	n/a	n/a	n/a	n/a	n/a	n/a	E3_05.jpg	500	0	651184	-1	651184	0	TrialProc1	E3OfficeLargeBlockList	2500	0	648685	0	648685	0	648685	2499	c	1272	649957	41.986
45	2.5	000_R01_VB_allProc	52	1	"<?xml version=""1.0""?>\n<Clock xmlns:dt=""urn:schemas-microsoft-com:datatypes""><Description dt:dt=""string"">E-Prime Primary Realtime Clock</Description><StartTime><Timestamp dt:dt=""int"">0</Timestamp><DateUtc dt:dt=""string"">2019-04-01T20:24:00Z</DateUtc></StartTime><FrequencyChanges><FrequencyChange><Frequency dt:dt=""r8"">3020400</Frequency><Timestamp dt:dt=""r8"">1631428738333</Timestamp><Current dt:dt=""r8"">0</Current><DateUtc dt:dt=""string"">2019-04-01T20:24:00Z</DateUtc></FrequencyChange></FrequencyChanges></Clock>\n"	000_R01_VB_allProc-52-1	60.022	1.0.0.185	1	-658246391	Professional	2.0.10.356	2.0.10.356	04-01-2019	4/1/2019 8:24:00 PM	16:24:00	2.0.10.252	4	0	0	606700	17	606700	3999	-999999	773634	-3	766641	0	Run3Proc	4	1	4	RunList	2	OfficeLarge	8000	0	654683	0	654683	0	654683	0	E3OfficeLargeBlockProc	n/a	n/a	n/a	n/a	n/a	n/a	2.0	1.0	2.0	n/a	n/a	n/a	n/a	n/a	n/a	Run3BlockList	6	n/a	n/a	n/a	n/a	n/a	n/a	n/a	n/a	n/a	n/a	n/a	n/a	n/a	n/a	n/a	n/a	n/a	n/a	n/a	n/a	n/a	n/a	n/a	n/a	n/a	n/a	n/a	n/a	n/a	n/a	n/a	n/a	n/a	n/a	n/a	n/a	n/a	n/a	n/a	n/a	n/a	n/a	n/a	n/a	n/a	n/a	n/a	n/a	n/a	n/a	n/a	n/a	n/a	n/a	n/a	n/a	n/a	n/a	n/a	n/a	n/a	n/a	n/a	n/a	n/a	n/a	6.0	1.0	6.0	n/a	n/a	n/a	n/a	n/a	n/a	n/a	n/a	n/a	n/a	n/a	n/a	n/a	n/a	n/a	n/a	n/a	n/a	n/a	n/a	n/a	E3_06.jpg	500	0	654183	-1	654183	0	TrialProc1	E3OfficeLargeBlockList	2500	0	651684	0	651684	0	651684	2499	c	865	652549	44.985
56	2.5	000_R01_VB_allProc	52	1	"<?xml version=""1.0""?>\n<Clock xmlns:dt=""urn:schemas-microsoft-com:datatypes""><Description dt:dt=""string"">E-Prime Primary Realtime Clock</Description><StartTime><Timestamp dt:dt=""int"">0</Timestamp><DateUtc dt:dt=""string"">2019-04-01T20:24:00Z</DateUtc></StartTime><FrequencyChanges><FrequencyChange><Frequency dt:dt=""r8"">3020400</Frequency><Timestamp dt:dt=""r8"">1631428738333</Timestamp><Current dt:dt=""r8"">0</Current><DateUtc dt:dt=""string"">2019-04-01T20:24:00Z</DateUtc></FrequencyChange></FrequencyChanges></Clock>\n"	000_R01_VB_allProc-52-1	60.022	1.0.0.185	1	-658246391	Professional	2.0.10.356	2.0.10.356	04-01-2019	4/1/2019 8:24:00 PM	16:24:00	2.0.10.252	4	0	0	606700	17	606700	3999	-999999	773634	-3	766641	0	Run3Proc	4	1	4	RunList	3	HighSmallED	8000	0	680673	0	680673	0	680673	0	B3HighSmallEDBlockProc	n/a	n/a	n/a	n/a	n/a	n/a	3.0	1.0	3.0	n/a	n/a	n/a	n/a	n/a	n/a	Run3BlockList	1	n/a	n/a	n/a	n/a	n/a	n/a	n/a	n/a	n/a	n/a	n/a	n/a	n/a	n/a	n/a	n/a	n/a	n/a	n/a	n/a	n/a	1.0	1.0	1.0	n/a	n/a	n/a	n/a	n/a	n/a	n/a	n/a	n/a	n/a	n/a	n/a	n/a	n/a	n/a	n/a	n/a	n/a	n/a	n/a	n/a	n/a	n/a	n/a	n/a	n/a	n/a	n/a	n/a	n/a	n/a	n/a	n/a	n/a	n/a	n/a	n/a	n/a	n/a	n/a	n/a	n/a	n/a	n/a	n/a	n/a	n/a	n/a	n/a	n/a	n/a	n/a	n/a	n/a	n/a	n/a	n/a	n/a	n/a	n/a	n/a	n/a	n/a	n/a	n/a	n/a	B3_01.jpg	500	0	665179	-1	665179	0	TrialProc1	B3HighSmallEDBlockList	2500	0	662680	0	662680	-3	662680	2499	d	2149	664829	55.981
59	2.5	000_R01_VB_allProc	52	1	"<?xml version=""1.0""?>\n<Clock xmlns:dt=""urn:schemas-microsoft-com:datatypes""><Description dt:dt=""string"">E-Prime Primary Realtime Clock</Description><StartTime><Timestamp dt:dt=""int"">0</Timestamp><DateUtc dt:dt=""string"">2019-04-01T20:24:00Z</DateUtc></StartTime><FrequencyChanges><FrequencyChange><Frequency dt:dt=""r8"">3020400</Frequency><Timestamp dt:dt=""r8"">1631428738333</Timestamp><Current dt:dt=""r8"">0</Current><DateUtc dt:dt=""string"">2019-04-01T20:24:00Z</DateUtc></FrequencyChange></FrequencyChanges></Clock>\n"	000_R01_VB_allProc-52-1	60.022	1.0.0.185	1	-658246391	Professional	2.0.10.356	2.0.10.356	04-01-2019	4/1/2019 8:24:00 PM	16:24:00	2.0.10.252	4	0	0	606700	17	606700	3999	-999999	773634	-3	766641	0	Run3Proc	4	1	4	RunList	3	HighSmallED	8000	0	680673	0	680673	0	680673	0	B3HighSmallEDBlockProc	n/a	n/a	n/a	n/a	n/a	n/a	3.0	1.0	3.0	n/a	n/a	n/a	n/a	n/a	n/a	Run3BlockList	2	n/a	n/a	n/a	n/a	n/a	n/a	n/a	n/a	n/a	n/a	n/a	n/a	n/a	n/a	n/a	n/a	n/a	n/a	n/a	n/a	n/a	2.0	1.0	2.0	n/a	n/a	n/a	n/a	n/a	n/a	n/a	n/a	n/a	n/a	n/a	n/a	n/a	n/a	n/a	n/a	n/a	n/a	n/a	n/a	n/a	n/a	n/a	n/a	n/a	n/a	n/a	n/a	n/a	n/a	n/a	n/a	n/a	n/a	n/a	n/a	n/a	n/a	n/a	n/a	n/a	n/a	n/a	n/a	n/a	n/a	n/a	n/a	n/a	n/a	n/a	n/a	n/a	n/a	n/a	n/a	n/a	n/a	n/a	n/a	n/a	n/a	n/a	n/a	n/a	n/a	B3_02.jpg	500	0	668178	-1	668178	0	TrialProc1	B3HighSmallEDBlockList	2500	0	665679	0	665679	0	665679	2499	d	1126	666805	58.98
62	2.5	000_R01_VB_allProc	52	1	"<?xml version=""1.0""?>\n<Clock xmlns:dt=""urn:schemas-microsoft-com:datatypes""><Description dt:dt=""string"">E-Prime Primary Realtime Clock</Description><StartTime><Timestamp dt:dt=""int"">0</Timestamp><DateUtc dt:dt=""string"">2019-04-01T20:24:00Z</DateUtc></StartTime><FrequencyChanges><FrequencyChange><Frequency dt:dt=""r8"">3020400</Frequency><Timestamp dt:dt=""r8"">1631428738333</Timestamp><Current dt:dt=""r8"">0</Current><DateUtc dt:dt=""string"">2019-04-01T20:24:00Z</DateUtc></FrequencyChange></FrequencyChanges></Clock>\n"	000_R01_VB_allProc-52-1	60.022	1.0.0.185	1	-658246391	Professional	2.0.10.356	2.0.10.356	04-01-2019	4/1/2019 8:24:00 PM	16:24:00	2.0.10.252	4	0	0	606700	17	606700	3999	-999999	773634	-3	766641	0	Run3Proc	4	1	4	RunList	3	HighSmallED	8000	0	680673	0	680673	0	680673	0	B3HighSmallEDBlockProc	n/a	n/a	n/a	n/a	n/a	n/a	3.0	1.0	3.0	n/a	n/a	n/a	n/a	n/a	n/a	Run3BlockList	3	n/a	n/a	n/a	n/a	n/a	n/a	n/a	n/a	n/a	n/a	n/a	n/a	n/a	n/a	n/a	n/a	n/a	n/a	n/a	n/a	n/a	3.0	1.0	3.0	n/a	n/a	n/a	n/a	n/a	n/a	n/a	n/a	n/a	n/a	n/a	n/a	n/a	n/a	n/a	n/a	n/a	n/a	n/a	n/a	n/a	n/a	n/a	n/a	n/a	n/a	n/a	n/a	n/a	n/a	n/a	n/a	n/a	n/a	n/a	n/a	n/a	n/a	n/a	n/a	n/a	n/a	n/a	n/a	n/a	n/a	n/a	n/a	n/a	n/a	n/a	n/a	n/a	n/a	n/a	n/a	n/a	n/a	n/a	n/a	n/a	n/a	n/a	n/a	n/a	n/a	B3_03.jpg	500	0	671177	0	671177	0	TrialProc1	B3HighSmallEDBlockList	2500	1	668678	1	668678	-1	668677	2500	d	2119	670796	61.978
65	2.5	000_R01_VB_allProc	52	1	"<?xml version=""1.0""?>\n<Clock xmlns:dt=""urn:schemas-microsoft-com:datatypes""><Description dt:dt=""string"">E-Prime Primary Realtime Clock</Description><StartTime><Timestamp dt:dt=""int"">0</Timestamp><DateUtc dt:dt=""string"">2019-04-01T20:24:00Z</DateUtc></StartTime><FrequencyChanges><FrequencyChange><Frequency dt:dt=""r8"">3020400</Frequency><Timestamp dt:dt=""r8"">1631428738333</Timestamp><Current dt:dt=""r8"">0</Current><DateUtc dt:dt=""string"">2019-04-01T20:24:00Z</DateUtc></FrequencyChange></FrequencyChanges></Clock>\n"	000_R01_VB_allProc-52-1	60.022	1.0.0.185	1	-658246391	Professional	2.0.10.356	2.0.10.356	04-01-2019	4/1/2019 8:24:00 PM	16:24:00	2.0.10.252	4	0	0	606700	17	606700	3999	-999999	773634	-3	766641	0	Run3Proc	4	1	4	RunList	3	HighSmallED	8000	0	680673	0	680673	0	680673	0	B3HighSmallEDBlockProc	n/a	n/a	n/a	n/a	n/a	n/a	3.0	1.0	3.0	n/a	n/a	n/a	n/a	n/a	n/a	Run3BlockList	4	n/a	n/a	n/a	n/a	n/a	n/a	n/a	n/a	n/a	n/a	n/a	n/a	n/a	n/a	n/a	n/a	n/a	n/a	n/a	n/a	n/a	4.0	1.0	4.0	n/a	n/a	n/a	n/a	n/a	n/a	n/a	n/a	n/a	n/a	n/a	n/a	n/a	n/a	n/a	n/a	n/a	n/a	n/a	n/a	n/a	n/a	n/a	n/a	n/a	n/a	n/a	n/a	n/a	n/a	n/a	n/a	n/a	n/a	n/a	n/a	n/a	n/a	n/a	n/a	n/a	n/a	n/a	n/a	n/a	n/a	n/a	n/a	n/a	n/a	n/a	n/a	n/a	n/a	n/a	n/a	n/a	n/a	n/a	n/a	n/a	n/a	n/a	n/a	n/a	n/a	B3_04.jpg	500	1	674176	-1	674175	0	TrialProc1	B3HighSmallEDBlockList	2500	0	671677	0	671676	-1	671676	2499	d	1184	672860	64.977
68	2.5	000_R01_VB_allProc	52	1	"<?xml version=""1.0""?>\n<Clock xmlns:dt=""urn:schemas-microsoft-com:datatypes""><Description dt:dt=""string"">E-Prime Primary Realtime Clock</Description><StartTime><Timestamp dt:dt=""int"">0</Timestamp><DateUtc dt:dt=""string"">2019-04-01T20:24:00Z</DateUtc></StartTime><FrequencyChanges><FrequencyChange><Frequency dt:dt=""r8"">3020400</Frequency><Timestamp dt:dt=""r8"">1631428738333</Timestamp><Current dt:dt=""r8"">0</Current><DateUtc dt:dt=""string"">2019-04-01T20:24:00Z</DateUtc></FrequencyChange></FrequencyChanges></Clock>\n"	000_R01_VB_allProc-52-1	60.022	1.0.0.185	1	-658246391	Professional	2.0.10.356	2.0.10.356	04-01-2019	4/1/2019 8:24:00 PM	16:24:00	2.0.10.252	4	0	0	606700	17	606700	3999	-999999	773634	-3	766641	0	Run3Proc	4	1	4	RunList	3	HighSmallED	8000	0	680673	0	680673	0	680673	0	B3HighSmallEDBlockProc	n/a	n/a	n/a	n/a	n/a	n/a	3.0	1.0	3.0	n/a	n/a	n/a	n/a	n/a	n/a	Run3BlockList	5	n/a	n/a	n/a	n/a	n/a	n/a	n/a	n/a	n/a	n/a	n/a	n/a	n/a	n/a	n/a	n/a	n/a	n/a	n/a	n/a	n/a	5.0	1.0	5.0	n/a	n/a	n/a	n/a	n/a	n/a	n/a	n/a	n/a	n/a	n/a	n/a	n/a	n/a	n/a	n/a	n/a	n/a	n/a	n/a	n/a	n/a	n/a	n/a	n/a	n/a	n/a	n/a	n/a	n/a	n/a	n/a	n/a	n/a	n/a	n/a	n/a	n/a	n/a	n/a	n/a	n/a	n/a	n/a	n/a	n/a	n/a	n/a	n/a	n/a	n/a	n/a	n/a	n/a	n/a	n/a	n/a	n/a	n/a	n/a	n/a	n/a	n/a	n/a	n/a	n/a	B3_05.jpg	500	0	677174	-1	677174	0	TrialProc1	B3HighSmallEDBlockList	2500	0	674675	0	674675	0	674675	2499	d	1073	675748	67.976
71	2.5	000_R01_VB_allProc	52	1	"<?xml version=""1.0""?>\n<Clock xmlns:dt=""urn:schemas-microsoft-com:datatypes""><Description dt:dt=""string"">E-Prime Primary Realtime Clock</Description><StartTime><Timestamp dt:dt=""int"">0</Timestamp><DateUtc dt:dt=""string"">2019-04-01T20:24:00Z</DateUtc></StartTime><FrequencyChanges><FrequencyChange><Frequency dt:dt=""r8"">3020400</Frequency><Timestamp dt:dt=""r8"">1631428738333</Timestamp><Current dt:dt=""r8"">0</Current><DateUtc dt:dt=""string"">2019-04-01T20:24:00Z</DateUtc></FrequencyChange></FrequencyChanges></Clock>\n"	000_R01_VB_allProc-52-1	60.022	1.0.0.185	1	-658246391	Professional	2.0.10.356	2.0.10.356	04-01-2019	4/1/2019 8:24:00 PM	16:24:00	2.0.10.252	4	0	0	606700	17	606700	3999	-999999	773634	-3	766641	0	Run3Proc	4	1	4	RunList	3	HighSmallED	8000	0	680673	0	680673	0	680673	0	B3HighSmallEDBlockProc	n/a	n/a	n/a	n/a	n/a	n/a	3.0	1.0	3.0	n/a	n/a	n/a	n/a	n/a	n/a	Run3BlockList	6	n/a	n/a	n/a	n/a	n/a	n/a	n/a	n/a	n/a	n/a	n/a	n/a	n/a	n/a	n/a	n/a	n/a	n/a	n/a	n/a	n/a	6.0	1.0	6.0	n/a	n/a	n/a	n/a	n/a	n/a	n/a	n/a	n/a	n/a	n/a	n/a	n/a	n/a	n/a	n/a	n/a	n/a	n/a	n/a	n/a	n/a	n/a	n/a	n/a	n/a	n/a	n/a	n/a	n/a	n/a	n/a	n/a	n/a	n/a	n/a	n/a	n/a	n/a	n/a	n/a	n/a	n/a	n/a	n/a	n/a	n/a	n/a	n/a	n/a	n/a	n/a	n/a	n/a	n/a	n/a	n/a	n/a	n/a	n/a	n/a	n/a	n/a	n/a	n/a	n/a	B3_06.jpg	500	0	680173	-1	680173	0	TrialProc1	B3HighSmallEDBlockList	2500	0	677674	0	677674	0	677674	2499	d	1666	679340	70.975
82	2.5	000_R01_VB_allProc	52	1	"<?xml version=""1.0""?>\n<Clock xmlns:dt=""urn:schemas-microsoft-com:datatypes""><Description dt:dt=""string"">E-Prime Primary Realtime Clock</Description><StartTime><Timestamp dt:dt=""int"">0</Timestamp><DateUtc dt:dt=""string"">2019-04-01T20:24:00Z</DateUtc></StartTime><FrequencyChanges><FrequencyChange><Frequency dt:dt=""r8"">3020400</Frequency><Timestamp dt:dt=""r8"">1631428738333</Timestamp><Current dt:dt=""r8"">0</Current><DateUtc dt:dt=""string"">2019-04-01T20:24:00Z</DateUtc></FrequencyChange></FrequencyChanges></Clock>\n"	000_R01_VB_allProc-52-1	60.022	1.0.0.185	1	-658246391	Professional	2.0.10.356	2.0.10.356	04-01-2019	4/1/2019 8:24:00 PM	16:24:00	2.0.10.252	4	0	0	606700	17	606700	3999	-999999	773634	-3	766641	0	Run3Proc	4	1	4	RunList	4	OfficeSmall	8000	1	706664	1	706664	-1	706663	0	F3OfficeSmallBlockProc	n/a	n/a	n/a	n/a	n/a	n/a	4.0	1.0	4.0	n/a	n/a	n/a	n/a	n/a	n/a	Run3BlockList	1	n/a	n/a	n/a	n/a	n/a	n/a	n/a	n/a	n/a	n/a	n/a	n/a	n/a	n/a	n/a	n/a	n/a	n/a	n/a	n/a	n/a	n/a	n/a	n/a	n/a	n/a	n/a	n/a	n/a	n/a	n/a	n/a	n/a	n/a	n/a	n/a	n/a	n/a	n/a	n/a	n/a	n/a	n/a	n/a	n/a	n/a	n/a	n/a	n/a	n/a	n/a	n/a	n/a	n/a	n/a	n/a	n/a	n/a	n/a	n/a	n/a	n/a	n/a	n/a	n/a	n/a	n/a	n/a	n/a	n/a	n/a	n/a	n/a	n/a	n/a	n/a	n/a	n/a	n/a	n/a	n/a	1.0	1.0	1.0	n/a	n/a	n/a	n/a	n/a	n/a	F3_01.jpg	500	0	691169	-1	691169	0	TrialProc1	F3OfficeSmallBlockList	2500	0	688670	0	688670	-3	688670	2499	c	1206	689876	81.971
85	2.5	000_R01_VB_allProc	52	1	"<?xml version=""1.0""?>\n<Clock xmlns:dt=""urn:schemas-microsoft-com:datatypes""><Description dt:dt=""string"">E-Prime Primary Realtime Clock</Description><StartTime><Timestamp dt:dt=""int"">0</Timestamp><DateUtc dt:dt=""string"">2019-04-01T20:24:00Z</DateUtc></StartTime><FrequencyChanges><FrequencyChange><Frequency dt:dt=""r8"">3020400</Frequency><Timestamp dt:dt=""r8"">1631428738333</Timestamp><Current dt:dt=""r8"">0</Current><DateUtc dt:dt=""string"">2019-04-01T20:24:00Z</DateUtc></FrequencyChange></FrequencyChanges></Clock>\n"	000_R01_VB_allProc-52-1	60.022	1.0.0.185	1	-658246391	Professional	2.0.10.356	2.0.10.356	04-01-2019	4/1/2019 8:24:00 PM	16:24:00	2.0.10.252	4	0	0	606700	17	606700	3999	-999999	773634	-3	766641	0	Run3Proc	4	1	4	RunList	4	OfficeSmall	8000	1	706664	1	706664	-1	706663	0	F3OfficeSmallBlockProc	n/a	n/a	n/a	n/a	n/a	n/a	4.0	1.0	4.0	n/a	n/a	n/a	n/a	n/a	n/a	Run3BlockList	2	n/a	n/a	n/a	n/a	n/a	n/a	n/a	n/a	n/a	n/a	n/a	n/a	n/a	n/a	n/a	n/a	n/a	n/a	n/a	n/a	n/a	n/a	n/a	n/a	n/a	n/a	n/a	n/a	n/a	n/a	n/a	n/a	n/a	n/a	n/a	n/a	n/a	n/a	n/a	n/a	n/a	n/a	n/a	n/a	n/a	n/a	n/a	n/a	n/a	n/a	n/a	n/a	n/a	n/a	n/a	n/a	n/a	n/a	n/a	n/a	n/a	n/a	n/a	n/a	n/a	n/a	n/a	n/a	n/a	n/a	n/a	n/a	n/a	n/a	n/a	n/a	n/a	n/a	n/a	n/a	n/a	2.0	1.0	2.0	n/a	n/a	n/a	n/a	n/a	n/a	F3_02.jpg	500	0	694168	-1	694168	0	TrialProc1	F3OfficeSmallBlockList	2500	0	691669	0	691669	0	691669	2499	c	759	692428	84.97
88	2.5	000_R01_VB_allProc	52	1	"<?xml version=""1.0""?>\n<Clock xmlns:dt=""urn:schemas-microsoft-com:datatypes""><Description dt:dt=""string"">E-Prime Primary Realtime Clock</Description><StartTime><Timestamp dt:dt=""int"">0</Timestamp><DateUtc dt:dt=""string"">2019-04-01T20:24:00Z</DateUtc></StartTime><FrequencyChanges><FrequencyChange><Frequency dt:dt=""r8"">3020400</Frequency><Timestamp dt:dt=""r8"">1631428738333</Timestamp><Current dt:dt=""r8"">0</Current><DateUtc dt:dt=""string"">2019-04-01T20:24:00Z</DateUtc></FrequencyChange></FrequencyChanges></Clock>\n"	000_R01_VB_allProc-52-1	60.022	1.0.0.185	1	-658246391	Professional	2.0.10.356	2.0.10.356	04-01-2019	4/1/2019 8:24:00 PM	16:24:00	2.0.10.252	4	0	0	606700	17	606700	3999	-999999	773634	-3	766641	0	Run3Proc	4	1	4	RunList	4	OfficeSmall	8000	1	706664	1	706664	-1	706663	0	F3OfficeSmallBlockProc	n/a	n/a	n/a	n/a	n/a	n/a	4.0	1.0	4.0	n/a	n/a	n/a	n/a	n/a	n/a	Run3BlockList	3	n/a	n/a	n/a	n/a	n/a	n/a	n/a	n/a	n/a	n/a	n/a	n/a	n/a	n/a	n/a	n/a	n/a	n/a	n/a	n/a	n/a	n/a	n/a	n/a	n/a	n/a	n/a	n/a	n/a	n/a	n/a	n/a	n/a	n/a	n/a	n/a	n/a	n/a	n/a	n/a	n/a	n/a	n/a	n/a	n/a	n/a	n/a	n/a	n/a	n/a	n/a	n/a	n/a	n/a	n/a	n/a	n/a	n/a	n/a	n/a	n/a	n/a	n/a	n/a	n/a	n/a	n/a	n/a	n/a	n/a	n/a	n/a	n/a	n/a	n/a	n/a	n/a	n/a	n/a	n/a	n/a	3.0	1.0	3.0	n/a	n/a	n/a	n/a	n/a	n/a	F3_03.jpg	500	0	697167	-1	697167	0	TrialProc1	F3OfficeSmallBlockList	2500	0	694668	0	694668	0	694668	2499	c	1080	695748	87.969
91	2.5	000_R01_VB_allProc	52	1	"<?xml version=""1.0""?>\n<Clock xmlns:dt=""urn:schemas-microsoft-com:datatypes""><Description dt:dt=""string"">E-Prime Primary Realtime Clock</Description><StartTime><Timestamp dt:dt=""int"">0</Timestamp><DateUtc dt:dt=""string"">2019-04-01T20:24:00Z</DateUtc></StartTime><FrequencyChanges><FrequencyChange><Frequency dt:dt=""r8"">3020400</Frequency><Timestamp dt:dt=""r8"">1631428738333</Timestamp><Current dt:dt=""r8"">0</Current><DateUtc dt:dt=""string"">2019-04-01T20:24:00Z</DateUtc></FrequencyChange></FrequencyChanges></Clock>\n"	000_R01_VB_allProc-52-1	60.022	1.0.0.185	1	-658246391	Professional	2.0.10.356	2.0.10.356	04-01-2019	4/1/2019 8:24:00 PM	16:24:00	2.0.10.252	4	0	0	606700	17	606700	3999	-999999	773634	-3	766641	0	Run3Proc	4	1	4	RunList	4	OfficeSmall	8000	1	706664	1	706664	-1	706663	0	F3OfficeSmallBlockProc	n/a	n/a	n/a	n/a	n/a	n/a	4.0	1.0	4.0	n/a	n/a	n/a	n/a	n/a	n/a	Run3BlockList	4	n/a	n/a	n/a	n/a	n/a	n/a	n/a	n/a	n/a	n/a	n/a	n/a	n/a	n/a	n/a	n/a	n/a	n/a	n/a	n/a	n/a	n/a	n/a	n/a	n/a	n/a	n/a	n/a	n/a	n/a	n/a	n/a	n/a	n/a	n/a	n/a	n/a	n/a	n/a	n/a	n/a	n/a	n/a	n/a	n/a	n/a	n/a	n/a	n/a	n/a	n/a	n/a	n/a	n/a	n/a	n/a	n/a	n/a	n/a	n/a	n/a	n/a	n/a	n/a	n/a	n/a	n/a	n/a	n/a	n/a	n/a	n/a	n/a	n/a	n/a	n/a	n/a	n/a	n/a	n/a	n/a	4.0	1.0	4.0	n/a	n/a	n/a	n/a	n/a	n/a	F3_04.jpg	500	0	700166	-1	700166	0	TrialProc1	F3OfficeSmallBlockList	2500	0	697667	0	697667	0	697667	2499	c	2089	699756	90.968
94	2.5	000_R01_VB_allProc	52	1	"<?xml version=""1.0""?>\n<Clock xmlns:dt=""urn:schemas-microsoft-com:datatypes""><Description dt:dt=""string"">E-Prime Primary Realtime Clock</Description><StartTime><Timestamp dt:dt=""int"">0</Timestamp><DateUtc dt:dt=""string"">2019-04-01T20:24:00Z</DateUtc></StartTime><FrequencyChanges><FrequencyChange><Frequency dt:dt=""r8"">3020400</Frequency><Timestamp dt:dt=""r8"">1631428738333</Timestamp><Current dt:dt=""r8"">0</Current><DateUtc dt:dt=""string"">2019-04-01T20:24:00Z</DateUtc></FrequencyChange></FrequencyChanges></Clock>\n"	000_R01_VB_allProc-52-1	60.022	1.0.0.185	1	-658246391	Professional	2.0.10.356	2.0.10.356	04-01-2019	4/1/2019 8:24:00 PM	16:24:00	2.0.10.252	4	0	0	606700	17	606700	3999	-999999	773634	-3	766641	0	Run3Proc	4	1	4	RunList	4	OfficeSmall	8000	1	706664	1	706664	-1	706663	0	F3OfficeSmallBlockProc	n/a	n/a	n/a	n/a	n/a	n/a	4.0	1.0	4.0	n/a	n/a	n/a	n/a	n/a	n/a	Run3BlockList	5	n/a	n/a	n/a	n/a	n/a	n/a	n/a	n/a	n/a	n/a	n/a	n/a	n/a	n/a	n/a	n/a	n/a	n/a	n/a	n/a	n/a	n/a	n/a	n/a	n/a	n/a	n/a	n/a	n/a	n/a	n/a	n/a	n/a	n/a	n/a	n/a	n/a	n/a	n/a	n/a	n/a	n/a	n/a	n/a	n/a	n/a	n/a	n/a	n/a	n/a	n/a	n/a	n/a	n/a	n/a	n/a	n/a	n/a	n/a	n/a	n/a	n/a	n/a	n/a	n/a	n/a	n/a	n/a	n/a	n/a	n/a	n/a	n/a	n/a	n/a	n/a	n/a	n/a	n/a	n/a	n/a	5.0	1.0	5.0	n/a	n/a	n/a	n/a	n/a	n/a	F3_05.jpg	500	0	703165	-1	703165	0	TrialProc1	F3OfficeSmallBlockList	2500	0	700666	0	700666	0	700666	2499	c	1306	701972	93.967
97	2.5	000_R01_VB_allProc	52	1	"<?xml version=""1.0""?>\n<Clock xmlns:dt=""urn:schemas-microsoft-com:datatypes""><Description dt:dt=""string"">E-Prime Primary Realtime Clock</Description><StartTime><Timestamp dt:dt=""int"">0</Timestamp><DateUtc dt:dt=""string"">2019-04-01T20:24:00Z</DateUtc></StartTime><FrequencyChanges><FrequencyChange><Frequency dt:dt=""r8"">3020400</Frequency><Timestamp dt:dt=""r8"">1631428738333</Timestamp><Current dt:dt=""r8"">0</Current><DateUtc dt:dt=""string"">2019-04-01T20:24:00Z</DateUtc></FrequencyChange></FrequencyChanges></Clock>\n"	000_R01_VB_allProc-52-1	60.022	1.0.0.185	1	-658246391	Professional	2.0.10.356	2.0.10.356	04-01-2019	4/1/2019 8:24:00 PM	16:24:00	2.0.10.252	4	0	0	606700	17	606700	3999	-999999	773634	-3	766641	0	Run3Proc	4	1	4	RunList	4	OfficeSmall	8000	1	706664	1	706664	-1	706663	0	F3OfficeSmallBlockProc	n/a	n/a	n/a	n/a	n/a	n/a	4.0	1.0	4.0	n/a	n/a	n/a	n/a	n/a	n/a	Run3BlockList	6	n/a	n/a	n/a	n/a	n/a	n/a	n/a	n/a	n/a	n/a	n/a	n/a	n/a	n/a	n/a	n/a	n/a	n/a	n/a	n/a	n/a	n/a	n/a	n/a	n/a	n/a	n/a	n/a	n/a	n/a	n/a	n/a	n/a	n/a	n/a	n/a	n/a	n/a	n/a	n/a	n/a	n/a	n/a	n/a	n/a	n/a	n/a	n/a	n/a	n/a	n/a	n/a	n/a	n/a	n/a	n/a	n/a	n/a	n/a	n/a	n/a	n/a	n/a	n/a	n/a	n/a	n/a	n/a	n/a	n/a	n/a	n/a	n/a	n/a	n/a	n/a	n/a	n/a	n/a	n/a	n/a	6.0	1.0	6.0	n/a	n/a	n/a	n/a	n/a	n/a	F3_06.jpg	500	0	706164	-1	706164	0	TrialProc1	F3OfficeSmallBlockList	2500	0	703665	0	703665	0	703665	2499	n/a	0	0	96.966
108	2.5	000_R01_VB_allProc	52	1	"<?xml version=""1.0""?>\n<Clock xmlns:dt=""urn:schemas-microsoft-com:datatypes""><Description dt:dt=""string"">E-Prime Primary Realtime Clock</Description><StartTime><Timestamp dt:dt=""int"">0</Timestamp><DateUtc dt:dt=""string"">2019-04-01T20:24:00Z</DateUtc></StartTime><FrequencyChanges><FrequencyChange><Frequency dt:dt=""r8"">3020400</Frequency><Timestamp dt:dt=""r8"">1631428738333</Timestamp><Current dt:dt=""r8"">0</Current><DateUtc dt:dt=""string"">2019-04-01T20:24:00Z</DateUtc></FrequencyChange></FrequencyChanges></Clock>\n"	000_R01_VB_allProc-52-1	60.022	1.0.0.185	1	-658246391	Professional	2.0.10.356	2.0.10.356	04-01-2019	4/1/2019 8:24:00 PM	16:24:00	2.0.10.252	4	0	0	606700	17	606700	3999	-999999	773634	-3	766641	0	Run3Proc	4	1	4	RunList	5	HighLargeED	8000	0	732654	0	732654	0	732654	0	A3HighLargeEDBlockProc	n/a	n/a	n/a	n/a	n/a	n/a	5.0	1.0	5.0	n/a	n/a	n/a	n/a	n/a	n/a	Run3BlockList	1	n/a	n/a	n/a	n/a	n/a	n/a	1.0	1.0	1.0	n/a	n/a	n/a	n/a	n/a	n/a	n/a	n/a	n/a	n/a	n/a	n/a	n/a	n/a	n/a	n/a	n/a	n/a	n/a	n/a	n/a	n/a	n/a	n/a	n/a	n/a	n/a	n/a	n/a	n/a	n/a	n/a	n/a	n/a	n/a	n/a	n/a	n/a	n/a	n/a	n/a	n/a	n/a	n/a	n/a	n/a	n/a	n/a	n/a	n/a	n/a	n/a	n/a	n/a	n/a	n/a	n/a	n/a	n/a	n/a	n/a	n/a	n/a	n/a	n/a	n/a	n/a	n/a	n/a	n/a	n/a	n/a	n/a	n/a	n/a	n/a	n/a	n/a	n/a	n/a	n/a	A3_01.jpg	500	0	717160	-1	717160	0	TrialProc1	A3HighLargeEDBlockList	2500	0	714661	0	714661	-2	714661	2499	c	1111	715772	107.962
111	2.5	000_R01_VB_allProc	52	1	"<?xml version=""1.0""?>\n<Clock xmlns:dt=""urn:schemas-microsoft-com:datatypes""><Description dt:dt=""string"">E-Prime Primary Realtime Clock</Description><StartTime><Timestamp dt:dt=""int"">0</Timestamp><DateUtc dt:dt=""string"">2019-04-01T20:24:00Z</DateUtc></StartTime><FrequencyChanges><FrequencyChange><Frequency dt:dt=""r8"">3020400</Frequency><Timestamp dt:dt=""r8"">1631428738333</Timestamp><Current dt:dt=""r8"">0</Current><DateUtc dt:dt=""string"">2019-04-01T20:24:00Z</DateUtc></FrequencyChange></FrequencyChanges></Clock>\n"	000_R01_VB_allProc-52-1	60.022	1.0.0.185	1	-658246391	Professional	2.0.10.356	2.0.10.356	04-01-2019	4/1/2019 8:24:00 PM	16:24:00	2.0.10.252	4	0	0	606700	17	606700	3999	-999999	773634	-3	766641	0	Run3Proc	4	1	4	RunList	5	HighLargeED	8000	0	732654	0	732654	0	732654	0	A3HighLargeEDBlockProc	n/a	n/a	n/a	n/a	n/a	n/a	5.0	1.0	5.0	n/a	n/a	n/a	n/a	n/a	n/a	Run3BlockList	2	n/a	n/a	n/a	n/a	n/a	n/a	2.0	1.0	2.0	n/a	n/a	n/a	n/a	n/a	n/a	n/a	n/a	n/a	n/a	n/a	n/a	n/a	n/a	n/a	n/a	n/a	n/a	n/a	n/a	n/a	n/a	n/a	n/a	n/a	n/a	n/a	n/a	n/a	n/a	n/a	n/a	n/a	n/a	n/a	n/a	n/a	n/a	n/a	n/a	n/a	n/a	n/a	n/a	n/a	n/a	n/a	n/a	n/a	n/a	n/a	n/a	n/a	n/a	n/a	n/a	n/a	n/a	n/a	n/a	n/a	n/a	n/a	n/a	n/a	n/a	n/a	n/a	n/a	n/a	n/a	n/a	n/a	n/a	n/a	n/a	n/a	n/a	n/a	n/a	n/a	A3_02.jpg	500	0	720159	0	720159	0	TrialProc1	A3HighLargeEDBlockList	2500	1	717660	1	717660	-1	717659	2500	d	1169	718828	110.96
114	2.5	000_R01_VB_allProc	52	1	"<?xml version=""1.0""?>\n<Clock xmlns:dt=""urn:schemas-microsoft-com:datatypes""><Description dt:dt=""string"">E-Prime Primary Realtime Clock</Description><StartTime><Timestamp dt:dt=""int"">0</Timestamp><DateUtc dt:dt=""string"">2019-04-01T20:24:00Z</DateUtc></StartTime><FrequencyChanges><FrequencyChange><Frequency dt:dt=""r8"">3020400</Frequency><Timestamp dt:dt=""r8"">1631428738333</Timestamp><Current dt:dt=""r8"">0</Current><DateUtc dt:dt=""string"">2019-04-01T20:24:00Z</DateUtc></FrequencyChange></FrequencyChanges></Clock>\n"	000_R01_VB_allProc-52-1	60.022	1.0.0.185	1	-658246391	Professional	2.0.10.356	2.0.10.356	04-01-2019	4/1/2019 8:24:00 PM	16:24:00	2.0.10.252	4	0	0	606700	17	606700	3999	-999999	773634	-3	766641	0	Run3Proc	4	1	4	RunList	5	HighLargeED	8000	0	732654	0	732654	0	732654	0	A3HighLargeEDBlockProc	n/a	n/a	n/a	n/a	n/a	n/a	5.0	1.0	5.0	n/a	n/a	n/a	n/a	n/a	n/a	Run3BlockList	3	n/a	n/a	n/a	n/a	n/a	n/a	3.0	1.0	3.0	n/a	n/a	n/a	n/a	n/a	n/a	n/a	n/a	n/a	n/a	n/a	n/a	n/a	n/a	n/a	n/a	n/a	n/a	n/a	n/a	n/a	n/a	n/a	n/a	n/a	n/a	n/a	n/a	n/a	n/a	n/a	n/a	n/a	n/a	n/a	n/a	n/a	n/a	n/a	n/a	n/a	n/a	n/a	n/a	n/a	n/a	n/a	n/a	n/a	n/a	n/a	n/a	n/a	n/a	n/a	n/a	n/a	n/a	n/a	n/a	n/a	n/a	n/a	n/a	n/a	n/a	n/a	n/a	n/a	n/a	n/a	n/a	n/a	n/a	n/a	n/a	n/a	n/a	n/a	n/a	n/a	A3_03.jpg	500	0	723158	-1	723157	0	TrialProc1	A3HighLargeEDBlockList	2500	0	720658	0	720658	-1	720658	2499	d	1330	721988	113.959
117	2.5	000_R01_VB_allProc	52	1	"<?xml version=""1.0""?>\n<Clock xmlns:dt=""urn:schemas-microsoft-com:datatypes""><Description dt:dt=""string"">E-Prime Primary Realtime Clock</Description><StartTime><Timestamp dt:dt=""int"">0</Timestamp><DateUtc dt:dt=""string"">2019-04-01T20:24:00Z</DateUtc></StartTime><FrequencyChanges><FrequencyChange><Frequency dt:dt=""r8"">3020400</Frequency><Timestamp dt:dt=""r8"">1631428738333</Timestamp><Current dt:dt=""r8"">0</Current><DateUtc dt:dt=""string"">2019-04-01T20:24:00Z</DateUtc></FrequencyChange></FrequencyChanges></Clock>\n"	000_R01_VB_allProc-52-1	60.022	1.0.0.185	1	-658246391	Professional	2.0.10.356	2.0.10.356	04-01-2019	4/1/2019 8:24:00 PM	16:24:00	2.0.10.252	4	0	0	606700	17	606700	3999	-999999	773634	-3	766641	0	Run3Proc	4	1	4	RunList	5	HighLargeED	8000	0	732654	0	732654	0	732654	0	A3HighLargeEDBlockProc	n/a	n/a	n/a	n/a	n/a	n/a	5.0	1.0	5.0	n/a	n/a	n/a	n/a	n/a	n/a	Run3BlockList	4	n/a	n/a	n/a	n/a	n/a	n/a	4.0	1.0	4.0	n/a	n/a	n/a	n/a	n/a	n/a	n/a	n/a	n/a	n/a	n/a	n/a	n/a	n/a	n/a	n/a	n/a	n/a	n/a	n/a	n/a	n/a	n/a	n/a	n/a	n/a	n/a	n/a	n/a	n/a	n/a	n/a	n/a	n/a	n/a	n/a	n/a	n/a	n/a	n/a	n/a	n/a	n/a	n/a	n/a	n/a	n/a	n/a	n/a	n/a	n/a	n/a	n/a	n/a	n/a	n/a	n/a	n/a	n/a	n/a	n/a	n/a	n/a	n/a	n/a	n/a	n/a	n/a	n/a	n/a	n/a	n/a	n/a	n/a	n/a	n/a	n/a	n/a	n/a	n/a	n/a	A3_04.jpg	500	0	726156	-1	726156	0	TrialProc1	A3HighLargeEDBlockList	2500	0	723657	0	723657	0	723657	2499	d	963	724620	116.958
120	2.5	000_R01_VB_allProc	52	1	"<?xml version=""1.0""?>\n<Clock xmlns:dt=""urn:schemas-microsoft-com:datatypes""><Description dt:dt=""string"">E-Prime Primary Realtime Clock</Description><StartTime><Timestamp dt:dt=""int"">0</Timestamp><DateUtc dt:dt=""string"">2019-04-01T20:24:00Z</DateUtc></StartTime><FrequencyChanges><FrequencyChange><Frequency dt:dt=""r8"">3020400</Frequency><Timestamp dt:dt=""r8"">1631428738333</Timestamp><Current dt:dt=""r8"">0</Current><DateUtc dt:dt=""string"">2019-04-01T20:24:00Z</DateUtc></FrequencyChange></FrequencyChanges></Clock>\n"	000_R01_VB_allProc-52-1	60.022	1.0.0.185	1	-658246391	Professional	2.0.10.356	2.0.10.356	04-01-2019	4/1/2019 8:24:00 PM	16:24:00	2.0.10.252	4	0	0	606700	17	606700	3999	-999999	773634	-3	766641	0	Run3Proc	4	1	4	RunList	5	HighLargeED	8000	0	732654	0	732654	0	732654	0	A3HighLargeEDBlockProc	n/a	n/a	n/a	n/a	n/a	n/a	5.0	1.0	5.0	n/a	n/a	n/a	n/a	n/a	n/a	Run3BlockList	5	n/a	n/a	n/a	n/a	n/a	n/a	5.0	1.0	5.0	n/a	n/a	n/a	n/a	n/a	n/a	n/a	n/a	n/a	n/a	n/a	n/a	n/a	n/a	n/a	n/a	n/a	n/a	n/a	n/a	n/a	n/a	n/a	n/a	n/a	n/a	n/a	n/a	n/a	n/a	n/a	n/a	n/a	n/a	n/a	n/a	n/a	n/a	n/a	n/a	n/a	n/a	n/a	n/a	n/a	n/a	n/a	n/a	n/a	n/a	n/a	n/a	n/a	n/a	n/a	n/a	n/a	n/a	n/a	n/a	n/a	n/a	n/a	n/a	n/a	n/a	n/a	n/a	n/a	n/a	n/a	n/a	n/a	n/a	n/a	n/a	n/a	n/a	n/a	n/a	n/a	A3_05.jpg	500	0	729155	-1	729155	0	TrialProc1	A3HighLargeEDBlockList	2500	0	726656	0	726656	0	726656	2499	d	2140	728796	119.957
123	2.5	000_R01_VB_allProc	52	1	"<?xml version=""1.0""?>\n<Clock xmlns:dt=""urn:schemas-microsoft-com:datatypes""><Description dt:dt=""string"">E-Prime Primary Realtime Clock</Description><StartTime><Timestamp dt:dt=""int"">0</Timestamp><DateUtc dt:dt=""string"">2019-04-01T20:24:00Z</DateUtc></StartTime><FrequencyChanges><FrequencyChange><Frequency dt:dt=""r8"">3020400</Frequency><Timestamp dt:dt=""r8"">1631428738333</Timestamp><Current dt:dt=""r8"">0</Current><DateUtc dt:dt=""string"">2019-04-01T20:24:00Z</DateUtc></FrequencyChange></FrequencyChanges></Clock>\n"	000_R01_VB_allProc-52-1	60.022	1.0.0.185	1	-658246391	Professional	2.0.10.356	2.0.10.356	04-01-2019	4/1/2019 8:24:00 PM	16:24:00	2.0.10.252	4	0	0	606700	17	606700	3999	-999999	773634	-3	766641	0	Run3Proc	4	1	4	RunList	5	HighLargeED	8000	0	732654	0	732654	0	732654	0	A3HighLargeEDBlockProc	n/a	n/a	n/a	n/a	n/a	n/a	5.0	1.0	5.0	n/a	n/a	n/a	n/a	n/a	n/a	Run3BlockList	6	n/a	n/a	n/a	n/a	n/a	n/a	6.0	1.0	6.0	n/a	n/a	n/a	n/a	n/a	n/a	n/a	n/a	n/a	n/a	n/a	n/a	n/a	n/a	n/a	n/a	n/a	n/a	n/a	n/a	n/a	n/a	n/a	n/a	n/a	n/a	n/a	n/a	n/a	n/a	n/a	n/a	n/a	n/a	n/a	n/a	n/a	n/a	n/a	n/a	n/a	n/a	n/a	n/a	n/a	n/a	n/a	n/a	n/a	n/a	n/a	n/a	n/a	n/a	n/a	n/a	n/a	n/a	n/a	n/a	n/a	n/a	n/a	n/a	n/a	n/a	n/a	n/a	n/a	n/a	n/a	n/a	n/a	n/a	n/a	n/a	n/a	n/a	n/a	n/a	n/a	A3_06.jpg	500	0	732154	-1	732154	0	TrialProc1	A3HighLargeEDBlockList	2500	0	729655	0	729655	0	729655	2499	d	1021	730676	122.956
134	2.5	000_R01_VB_allProc	52	1	"<?xml version=""1.0""?>\n<Clock xmlns:dt=""urn:schemas-microsoft-com:datatypes""><Description dt:dt=""string"">E-Prime Primary Realtime Clock</Description><StartTime><Timestamp dt:dt=""int"">0</Timestamp><DateUtc dt:dt=""string"">2019-04-01T20:24:00Z</DateUtc></StartTime><FrequencyChanges><FrequencyChange><Frequency dt:dt=""r8"">3020400</Frequency><Timestamp dt:dt=""r8"">1631428738333</Timestamp><Current dt:dt=""r8"">0</Current><DateUtc dt:dt=""string"">2019-04-01T20:24:00Z</DateUtc></FrequencyChange></FrequencyChanges></Clock>\n"	000_R01_VB_allProc-52-1	60.022	1.0.0.185	1	-658246391	Professional	2.0.10.356	2.0.10.356	04-01-2019	4/1/2019 8:24:00 PM	16:24:00	2.0.10.252	4	0	0	606700	17	606700	3999	-999999	773634	-3	766641	0	Run3Proc	4	1	4	RunList	6	LowLargeED	8000	0	758644	0	758644	-1	758644	0	C3LowLargeEDBlockProc	n/a	n/a	n/a	n/a	n/a	n/a	6.0	1.0	6.0	n/a	n/a	n/a	n/a	n/a	n/a	Run3BlockList	1	n/a	n/a	n/a	n/a	n/a	n/a	n/a	n/a	n/a	n/a	n/a	n/a	n/a	n/a	n/a	n/a	n/a	n/a	n/a	n/a	n/a	n/a	n/a	n/a	n/a	n/a	n/a	n/a	n/a	n/a	n/a	n/a	n/a	n/a	n/a	n/a	1.0	1.0	1.0	n/a	n/a	n/a	n/a	n/a	n/a	n/a	n/a	n/a	n/a	n/a	n/a	n/a	n/a	n/a	n/a	n/a	n/a	n/a	n/a	n/a	n/a	n/a	n/a	n/a	n/a	n/a	n/a	n/a	n/a	n/a	n/a	n/a	n/a	n/a	n/a	n/a	n/a	n/a	n/a	n/a	n/a	n/a	n/a	n/a	n/a	n/a	n/a	n/a	n/a	n/a	C3_01.jpg	500	0	743150	-1	743150	0	TrialProc1	C3LowLargeEDBlockList	2500	0	740651	0	740651	-3	740651	2499	d	1248	741899	133.952
137	2.5	000_R01_VB_allProc	52	1	"<?xml version=""1.0""?>\n<Clock xmlns:dt=""urn:schemas-microsoft-com:datatypes""><Description dt:dt=""string"">E-Prime Primary Realtime Clock</Description><StartTime><Timestamp dt:dt=""int"">0</Timestamp><DateUtc dt:dt=""string"">2019-04-01T20:24:00Z</DateUtc></StartTime><FrequencyChanges><FrequencyChange><Frequency dt:dt=""r8"">3020400</Frequency><Timestamp dt:dt=""r8"">1631428738333</Timestamp><Current dt:dt=""r8"">0</Current><DateUtc dt:dt=""string"">2019-04-01T20:24:00Z</DateUtc></FrequencyChange></FrequencyChanges></Clock>\n"	000_R01_VB_allProc-52-1	60.022	1.0.0.185	1	-658246391	Professional	2.0.10.356	2.0.10.356	04-01-2019	4/1/2019 8:24:00 PM	16:24:00	2.0.10.252	4	0	0	606700	17	606700	3999	-999999	773634	-3	766641	0	Run3Proc	4	1	4	RunList	6	LowLargeED	8000	0	758644	0	758644	-1	758644	0	C3LowLargeEDBlockProc	n/a	n/a	n/a	n/a	n/a	n/a	6.0	1.0	6.0	n/a	n/a	n/a	n/a	n/a	n/a	Run3BlockList	2	n/a	n/a	n/a	n/a	n/a	n/a	n/a	n/a	n/a	n/a	n/a	n/a	n/a	n/a	n/a	n/a	n/a	n/a	n/a	n/a	n/a	n/a	n/a	n/a	n/a	n/a	n/a	n/a	n/a	n/a	n/a	n/a	n/a	n/a	n/a	n/a	2.0	1.0	2.0	n/a	n/a	n/a	n/a	n/a	n/a	n/a	n/a	n/a	n/a	n/a	n/a	n/a	n/a	n/a	n/a	n/a	n/a	n/a	n/a	n/a	n/a	n/a	n/a	n/a	n/a	n/a	n/a	n/a	n/a	n/a	n/a	n/a	n/a	n/a	n/a	n/a	n/a	n/a	n/a	n/a	n/a	n/a	n/a	n/a	n/a	n/a	n/a	n/a	n/a	n/a	C3_02.jpg	500	0	746149	-1	746149	0	TrialProc1	C3LowLargeEDBlockList	2500	0	743650	0	743650	0	743650	2499	d	1249	744899	136.951
140	2.5	000_R01_VB_allProc	52	1	"<?xml version=""1.0""?>\n<Clock xmlns:dt=""urn:schemas-microsoft-com:datatypes""><Description dt:dt=""string"">E-Prime Primary Realtime Clock</Description><StartTime><Timestamp dt:dt=""int"">0</Timestamp><DateUtc dt:dt=""string"">2019-04-01T20:24:00Z</DateUtc></StartTime><FrequencyChanges><FrequencyChange><Frequency dt:dt=""r8"">3020400</Frequency><Timestamp dt:dt=""r8"">1631428738333</Timestamp><Current dt:dt=""r8"">0</Current><DateUtc dt:dt=""string"">2019-04-01T20:24:00Z</DateUtc></FrequencyChange></FrequencyChanges></Clock>\n"	000_R01_VB_allProc-52-1	60.022	1.0.0.185	1	-658246391	Professional	2.0.10.356	2.0.10.356	04-01-2019	4/1/2019 8:24:00 PM	16:24:00	2.0.10.252	4	0	0	606700	17	606700	3999	-999999	773634	-3	766641	0	Run3Proc	4	1	4	RunList	6	LowLargeED	8000	0	758644	0	758644	-1	758644	0	C3LowLargeEDBlockProc	n/a	n/a	n/a	n/a	n/a	n/a	6.0	1.0	6.0	n/a	n/a	n/a	n/a	n/a	n/a	Run3BlockList	3	n/a	n/a	n/a	n/a	n/a	n/a	n/a	n/a	n/a	n/a	n/a	n/a	n/a	n/a	n/a	n/a	n/a	n/a	n/a	n/a	n/a	n/a	n/a	n/a	n/a	n/a	n/a	n/a	n/a	n/a	n/a	n/a	n/a	n/a	n/a	n/a	3.0	1.0	3.0	n/a	n/a	n/a	n/a	n/a	n/a	n/a	n/a	n/a	n/a	n/a	n/a	n/a	n/a	n/a	n/a	n/a	n/a	n/a	n/a	n/a	n/a	n/a	n/a	n/a	n/a	n/a	n/a	n/a	n/a	n/a	n/a	n/a	n/a	n/a	n/a	n/a	n/a	n/a	n/a	n/a	n/a	n/a	n/a	n/a	n/a	n/a	n/a	n/a	n/a	n/a	C3_03.jpg	500	0	749148	-1	749148	0	TrialProc1	C3LowLargeEDBlockList	2500	0	746649	0	746649	0	746649	2499	c	1778	748427	139.95
143	2.5	000_R01_VB_allProc	52	1	"<?xml version=""1.0""?>\n<Clock xmlns:dt=""urn:schemas-microsoft-com:datatypes""><Description dt:dt=""string"">E-Prime Primary Realtime Clock</Description><StartTime><Timestamp dt:dt=""int"">0</Timestamp><DateUtc dt:dt=""string"">2019-04-01T20:24:00Z</DateUtc></StartTime><FrequencyChanges><FrequencyChange><Frequency dt:dt=""r8"">3020400</Frequency><Timestamp dt:dt=""r8"">1631428738333</Timestamp><Current dt:dt=""r8"">0</Current><DateUtc dt:dt=""string"">2019-04-01T20:24:00Z</DateUtc></FrequencyChange></FrequencyChanges></Clock>\n"	000_R01_VB_allProc-52-1	60.022	1.0.0.185	1	-658246391	Professional	2.0.10.356	2.0.10.356	04-01-2019	4/1/2019 8:24:00 PM	16:24:00	2.0.10.252	4	0	0	606700	17	606700	3999	-999999	773634	-3	766641	0	Run3Proc	4	1	4	RunList	6	LowLargeED	8000	0	758644	0	758644	-1	758644	0	C3LowLargeEDBlockProc	n/a	n/a	n/a	n/a	n/a	n/a	6.0	1.0	6.0	n/a	n/a	n/a	n/a	n/a	n/a	Run3BlockList	4	n/a	n/a	n/a	n/a	n/a	n/a	n/a	n/a	n/a	n/a	n/a	n/a	n/a	n/a	n/a	n/a	n/a	n/a	n/a	n/a	n/a	n/a	n/a	n/a	n/a	n/a	n/a	n/a	n/a	n/a	n/a	n/a	n/a	n/a	n/a	n/a	4.0	1.0	4.0	n/a	n/a	n/a	n/a	n/a	n/a	n/a	n/a	n/a	n/a	n/a	n/a	n/a	n/a	n/a	n/a	n/a	n/a	n/a	n/a	n/a	n/a	n/a	n/a	n/a	n/a	n/a	n/a	n/a	n/a	n/a	n/a	n/a	n/a	n/a	n/a	n/a	n/a	n/a	n/a	n/a	n/a	n/a	n/a	n/a	n/a	n/a	n/a	n/a	n/a	n/a	C3_04.jpg	500	0	752147	-1	752147	0	TrialProc1	C3LowLargeEDBlockList	2500	0	749648	0	749648	0	749648	2499	d	1251	750899	142.949
146	2.5	000_R01_VB_allProc	52	1	"<?xml version=""1.0""?>\n<Clock xmlns:dt=""urn:schemas-microsoft-com:datatypes""><Description dt:dt=""string"">E-Prime Primary Realtime Clock</Description><StartTime><Timestamp dt:dt=""int"">0</Timestamp><DateUtc dt:dt=""string"">2019-04-01T20:24:00Z</DateUtc></StartTime><FrequencyChanges><FrequencyChange><Frequency dt:dt=""r8"">3020400</Frequency><Timestamp dt:dt=""r8"">1631428738333</Timestamp><Current dt:dt=""r8"">0</Current><DateUtc dt:dt=""string"">2019-04-01T20:24:00Z</DateUtc></FrequencyChange></FrequencyChanges></Clock>\n"	000_R01_VB_allProc-52-1	60.022	1.0.0.185	1	-658246391	Professional	2.0.10.356	2.0.10.356	04-01-2019	4/1/2019 8:24:00 PM	16:24:00	2.0.10.252	4	0	0	606700	17	606700	3999	-999999	773634	-3	766641	0	Run3Proc	4	1	4	RunList	6	LowLargeED	8000	0	758644	0	758644	-1	758644	0	C3LowLargeEDBlockProc	n/a	n/a	n/a	n/a	n/a	n/a	6.0	1.0	6.0	n/a	n/a	n/a	n/a	n/a	n/a	Run3BlockList	5	n/a	n/a	n/a	n/a	n/a	n/a	n/a	n/a	n/a	n/a	n/a	n/a	n/a	n/a	n/a	n/a	n/a	n/a	n/a	n/a	n/a	n/a	n/a	n/a	n/a	n/a	n/a	n/a	n/a	n/a	n/a	n/a	n/a	n/a	n/a	n/a	5.0	1.0	5.0	n/a	n/a	n/a	n/a	n/a	n/a	n/a	n/a	n/a	n/a	n/a	n/a	n/a	n/a	n/a	n/a	n/a	n/a	n/a	n/a	n/a	n/a	n/a	n/a	n/a	n/a	n/a	n/a	n/a	n/a	n/a	n/a	n/a	n/a	n/a	n/a	n/a	n/a	n/a	n/a	n/a	n/a	n/a	n/a	n/a	n/a	n/a	n/a	n/a	n/a	n/a	C3_05.jpg	500	0	755146	-1	755146	0	TrialProc1	C3LowLargeEDBlockList	2500	0	752647	0	752647	0	752647	2499	d	1860	754507	145.948
149	2.5	000_R01_VB_allProc	52	1	"<?xml version=""1.0""?>\n<Clock xmlns:dt=""urn:schemas-microsoft-com:datatypes""><Description dt:dt=""string"">E-Prime Primary Realtime Clock</Description><StartTime><Timestamp dt:dt=""int"">0</Timestamp><DateUtc dt:dt=""string"">2019-04-01T20:24:00Z</DateUtc></StartTime><FrequencyChanges><FrequencyChange><Frequency dt:dt=""r8"">3020400</Frequency><Timestamp dt:dt=""r8"">1631428738333</Timestamp><Current dt:dt=""r8"">0</Current><DateUtc dt:dt=""string"">2019-04-01T20:24:00Z</DateUtc></FrequencyChange></FrequencyChanges></Clock>\n"	000_R01_VB_allProc-52-1	60.022	1.0.0.185	1	-658246391	Professional	2.0.10.356	2.0.10.356	04-01-2019	4/1/2019 8:24:00 PM	16:24:00	2.0.10.252	4	0	0	606700	17	606700	3999	-999999	773634	-3	766641	0	Run3Proc	4	1	4	RunList	6	LowLargeED	8000	0	758644	0	758644	-1	758644	0	C3LowLargeEDBlockProc	n/a	n/a	n/a	n/a	n/a	n/a	6.0	1.0	6.0	n/a	n/a	n/a	n/a	n/a	n/a	Run3BlockList	6	n/a	n/a	n/a	n/a	n/a	n/a	n/a	n/a	n/a	n/a	n/a	n/a	n/a	n/a	n/a	n/a	n/a	n/a	n/a	n/a	n/a	n/a	n/a	n/a	n/a	n/a	n/a	n/a	n/a	n/a	n/a	n/a	n/a	n/a	n/a	n/a	6.0	1.0	6.0	n/a	n/a	n/a	n/a	n/a	n/a	n/a	n/a	n/a	n/a	n/a	n/a	n/a	n/a	n/a	n/a	n/a	n/a	n/a	n/a	n/a	n/a	n/a	n/a	n/a	n/a	n/a	n/a	n/a	n/a	n/a	n/a	n/a	n/a	n/a	n/a	n/a	n/a	n/a	n/a	n/a	n/a	n/a	n/a	n/a	n/a	n/a	n/a	n/a	n/a	n/a	C3_06.jpg	500	0	758145	0	758145	0	TrialProc1	C3LowLargeEDBlockList	2500	1	755646	1	755646	-1	755645	2500	d	1582	757227	148.946
