onset	duration	experiment_name	sub	ses	clock_information	datafile_basename	display_refreshrate	experiment_version	group	randomseed	runtime_capabilities	runtime_version	runtimeversionexpected	session_date	session_start_date_time_utc	session_time	studio_version	block	fixation2trs_durationerror	fixation2trs_offsetdelay	fixation2trs_offsettime	fixation2trs_onsetdelay	fixation2trs_onsettime	fixation2trs_onsettoonsettime	goodwork_durationerror	goodwork_finishtime	goodwork_onsetdelay	goodwork_onsettime	goodwork_onsettoonsettime	procedure_block	runlist	runlist_cycle	runlist_sample	running_block	trial	condition	interblockinterval_duration	interblockinterval_durationerror	interblockinterval_finishtime	interblockinterval_offsetdelay	interblockinterval_offsettime	interblockinterval_onsetdelay	interblockinterval_onsettime	interblockinterval_onsettoonsettime	procedure_trial	run1blocklist	run1blocklist_cycle	run1blocklist_sample	run2blocklist	run2blocklist_cycle	run2blocklist_sample	run3blocklist	run3blocklist_cycle	run3blocklist_sample	run4blocklist	run4blocklist_cycle	run4blocklist_sample	run5blocklist	run5blocklist_cycle	run5blocklist_sample	running_trial	subtrial	a1highlargeedblocklist	a1highlargeedblocklist_cycle	a1highlargeedblocklist_sample	a2highlargeedblocklist	a2highlargeedblocklist_cycle	a2highlargeedblocklist_sample	a3highlargeedblocklist	a3highlargeedblocklist_cycle	a3highlargeedblocklist_sample	a4highlargeedblocklist	a4highlargeedblocklist_cycle	a4highlargeedblocklist_sample	a5highlargeedblocklist	a5highlargeedblocklist_cycle	a5highlargeedblocklist_sample	b1highsmalledblocklist	b1highsmalledblocklist_cycle	b1highsmalledblocklist_sample	b2highsmalledblocklist	b2highsmalledblocklist_cycle	b2highsmalledblocklist_sample	b3highsmalledblocklist	b3highsmalledblocklist_cycle	b3highsmalledblocklist_sample	b4highsmalledblocklist	b4highsmalledblocklist_cycle	b4highsmalledblocklist_sample	b5highsmalledblocklist	b5highsmalledblocklist_cycle	b5highsmalledblocklist_sample	c1lowlargeedblocklist	c1lowlargeedblocklist_cycle	c1lowlargeedblocklist_sample	c2lowlargeedblocklist	c2lowlargeedblocklist_cycle	c2lowlargeedblocklist_sample	c3lowlargeedblocklist	c3lowlargeedblocklist_cycle	c3lowlargeedblocklist_sample	c4lowlargeedblocklist	c4lowlargeedblocklist_cycle	c4lowlargeedblocklist_sample	c5lowlargeedblocklist	c5lowlargeedblocklist_cycle	c5lowlargeedblocklist_sample	d1lowsmalledblocklist	d1lowsmalledblocklist_cycle	d1lowsmalledblocklist_sample	d2highlargeedblocklist	d2highlargeedblocklist_cycle	d2highlargeedblocklist_sample	d3lowsmalledblocklist	d3lowsmalledblocklist_cycle	d3lowsmalledblocklist_sample	d4lowsmalledblocklist	d4lowsmalledblocklist_cycle	d4lowsmalledblocklist_sample	d5lowsmalledblocklist	d5lowsmalledblocklist_cycle	d5lowsmalledblocklist_sample	e1officelargeblocklist	e1officelargeblocklist_cycle	e1officelargeblocklist_sample	e2officelargeblocklist	e2officelargeblocklist_cycle	e2officelargeblocklist_sample	e3officelargeblocklist	e3officelargeblocklist_cycle	e3officelargeblocklist_sample	e4officelargeblocklist	e4officelargeblocklist_cycle	e4officelargeblocklist_sample	e5officelargeblocklist	e5officelargeblocklist_cycle	e5officelargeblocklist_sample	f1officesmallblocklist	f1officesmallblocklist_cycle	f1officesmallblocklist_sample	f2officesmallblocklist	f2officesmallblocklist_cycle	f2officesmallblocklist_sample	f3officesmallblocklist	f3officesmallblocklist_cycle	f3officesmallblocklist_sample	f4officesmallblocklist	f4officesmallblocklist_cycle	f4officesmallblocklist_sample	f5officesmallblocklist	f5officesmallblocklist_cycle	f5officesmallblocklist_sample	filename	isi_duration	isi_durationerror	isi_finishtime	isi_onsetdelay	isi_onsettime	isi_onsettoonsettime	procedure_subtrial	running_subtrial	stimslide_duration	stimslide_durationerror	stimslide_finishtime	stimslide_offsetdelay	stimslide_offsettime	stimslide_onsetdelay	stimslide_onsettime	stimslide_onsettoonsettime	stimslide_resp	stimslide_rt	stimslide_rttime	onset_unrounded
4	2.5	000_R01_VB_allProc	56	1	"<?xml version=""1.0""?>\n<Clock xmlns:dt=""urn:schemas-microsoft-com:datatypes""><Description dt:dt=""string"">E-Prime Primary Realtime Clock</Description><StartTime><Timestamp dt:dt=""int"">0</Timestamp><DateUtc dt:dt=""string"">2019-07-23T21:38:14Z</DateUtc></StartTime><FrequencyChanges><FrequencyChange><Frequency dt:dt=""r8"">3020410</Frequency><Timestamp dt:dt=""r8"">2958812698330</Timestamp><Current dt:dt=""r8"">0</Current><DateUtc dt:dt=""string"">2019-07-23T21:38:14Z</DateUtc></FrequencyChange></FrequencyChanges></Clock>\n"	000_R01_VB_allProc-56-1	60.022	1.0.0.185	1	-419158361	Professional	2.0.10.356	2.0.10.356	07-23-2019	7/23/2019 9:38:15 PM	17:38:15	2.0.10.252	2	0	0	252156	17	252156	3998	-999999	424471	-3	412096	0	Run5Proc	2	1	2	RunList	1	LowLargeED	8000	0	274147	0	274147	-1	274147	0	C5LowLargeEDBlockProc	n/a	n/a	n/a	n/a	n/a	n/a	n/a	n/a	n/a	n/a	n/a	n/a	1.0	1.0	1.0	Run5BlockList	1	n/a	n/a	n/a	n/a	n/a	n/a	n/a	n/a	n/a	n/a	n/a	n/a	n/a	n/a	n/a	n/a	n/a	n/a	n/a	n/a	n/a	n/a	n/a	n/a	n/a	n/a	n/a	n/a	n/a	n/a	n/a	n/a	n/a	n/a	n/a	n/a	n/a	n/a	n/a	n/a	n/a	n/a	1.0	1.0	1.0	n/a	n/a	n/a	n/a	n/a	n/a	n/a	n/a	n/a	n/a	n/a	n/a	n/a	n/a	n/a	n/a	n/a	n/a	n/a	n/a	n/a	n/a	n/a	n/a	n/a	n/a	n/a	n/a	n/a	n/a	n/a	n/a	n/a	n/a	n/a	n/a	n/a	n/a	n/a	n/a	n/a	n/a	n/a	n/a	n/a	C5_01.jpg	500	0	258653	-1	258653	0	TrialProc1	C5LowLargeEDBlockList	2500	0	256154	0	256154	-2	256154	2499	c	1217	257371	4.0
7	2.5	000_R01_VB_allProc	56	1	"<?xml version=""1.0""?>\n<Clock xmlns:dt=""urn:schemas-microsoft-com:datatypes""><Description dt:dt=""string"">E-Prime Primary Realtime Clock</Description><StartTime><Timestamp dt:dt=""int"">0</Timestamp><DateUtc dt:dt=""string"">2019-07-23T21:38:14Z</DateUtc></StartTime><FrequencyChanges><FrequencyChange><Frequency dt:dt=""r8"">3020410</Frequency><Timestamp dt:dt=""r8"">2958812698330</Timestamp><Current dt:dt=""r8"">0</Current><DateUtc dt:dt=""string"">2019-07-23T21:38:14Z</DateUtc></FrequencyChange></FrequencyChanges></Clock>\n"	000_R01_VB_allProc-56-1	60.022	1.0.0.185	1	-419158361	Professional	2.0.10.356	2.0.10.356	07-23-2019	7/23/2019 9:38:15 PM	17:38:15	2.0.10.252	2	0	0	252156	17	252156	3998	-999999	424471	-3	412096	0	Run5Proc	2	1	2	RunList	1	LowLargeED	8000	0	274147	0	274147	-1	274147	0	C5LowLargeEDBlockProc	n/a	n/a	n/a	n/a	n/a	n/a	n/a	n/a	n/a	n/a	n/a	n/a	1.0	1.0	1.0	Run5BlockList	2	n/a	n/a	n/a	n/a	n/a	n/a	n/a	n/a	n/a	n/a	n/a	n/a	n/a	n/a	n/a	n/a	n/a	n/a	n/a	n/a	n/a	n/a	n/a	n/a	n/a	n/a	n/a	n/a	n/a	n/a	n/a	n/a	n/a	n/a	n/a	n/a	n/a	n/a	n/a	n/a	n/a	n/a	2.0	1.0	2.0	n/a	n/a	n/a	n/a	n/a	n/a	n/a	n/a	n/a	n/a	n/a	n/a	n/a	n/a	n/a	n/a	n/a	n/a	n/a	n/a	n/a	n/a	n/a	n/a	n/a	n/a	n/a	n/a	n/a	n/a	n/a	n/a	n/a	n/a	n/a	n/a	n/a	n/a	n/a	n/a	n/a	n/a	n/a	n/a	n/a	C5_02.jpg	500	0	261652	-1	261652	0	TrialProc1	C5LowLargeEDBlockList	2500	0	259153	0	259153	0	259153	2499	d	1098	260251	6.9990000000000006
10	2.5	000_R01_VB_allProc	56	1	"<?xml version=""1.0""?>\n<Clock xmlns:dt=""urn:schemas-microsoft-com:datatypes""><Description dt:dt=""string"">E-Prime Primary Realtime Clock</Description><StartTime><Timestamp dt:dt=""int"">0</Timestamp><DateUtc dt:dt=""string"">2019-07-23T21:38:14Z</DateUtc></StartTime><FrequencyChanges><FrequencyChange><Frequency dt:dt=""r8"">3020410</Frequency><Timestamp dt:dt=""r8"">2958812698330</Timestamp><Current dt:dt=""r8"">0</Current><DateUtc dt:dt=""string"">2019-07-23T21:38:14Z</DateUtc></FrequencyChange></FrequencyChanges></Clock>\n"	000_R01_VB_allProc-56-1	60.022	1.0.0.185	1	-419158361	Professional	2.0.10.356	2.0.10.356	07-23-2019	7/23/2019 9:38:15 PM	17:38:15	2.0.10.252	2	0	0	252156	17	252156	3998	-999999	424471	-3	412096	0	Run5Proc	2	1	2	RunList	1	LowLargeED	8000	0	274147	0	274147	-1	274147	0	C5LowLargeEDBlockProc	n/a	n/a	n/a	n/a	n/a	n/a	n/a	n/a	n/a	n/a	n/a	n/a	1.0	1.0	1.0	Run5BlockList	3	n/a	n/a	n/a	n/a	n/a	n/a	n/a	n/a	n/a	n/a	n/a	n/a	n/a	n/a	n/a	n/a	n/a	n/a	n/a	n/a	n/a	n/a	n/a	n/a	n/a	n/a	n/a	n/a	n/a	n/a	n/a	n/a	n/a	n/a	n/a	n/a	n/a	n/a	n/a	n/a	n/a	n/a	3.0	1.0	3.0	n/a	n/a	n/a	n/a	n/a	n/a	n/a	n/a	n/a	n/a	n/a	n/a	n/a	n/a	n/a	n/a	n/a	n/a	n/a	n/a	n/a	n/a	n/a	n/a	n/a	n/a	n/a	n/a	n/a	n/a	n/a	n/a	n/a	n/a	n/a	n/a	n/a	n/a	n/a	n/a	n/a	n/a	n/a	n/a	n/a	C5_03.jpg	500	0	264651	-1	264651	0	TrialProc1	C5LowLargeEDBlockList	2500	0	262152	0	262152	0	262152	2499	d	915	263067	9.998000000000001
13	2.5	000_R01_VB_allProc	56	1	"<?xml version=""1.0""?>\n<Clock xmlns:dt=""urn:schemas-microsoft-com:datatypes""><Description dt:dt=""string"">E-Prime Primary Realtime Clock</Description><StartTime><Timestamp dt:dt=""int"">0</Timestamp><DateUtc dt:dt=""string"">2019-07-23T21:38:14Z</DateUtc></StartTime><FrequencyChanges><FrequencyChange><Frequency dt:dt=""r8"">3020410</Frequency><Timestamp dt:dt=""r8"">2958812698330</Timestamp><Current dt:dt=""r8"">0</Current><DateUtc dt:dt=""string"">2019-07-23T21:38:14Z</DateUtc></FrequencyChange></FrequencyChanges></Clock>\n"	000_R01_VB_allProc-56-1	60.022	1.0.0.185	1	-419158361	Professional	2.0.10.356	2.0.10.356	07-23-2019	7/23/2019 9:38:15 PM	17:38:15	2.0.10.252	2	0	0	252156	17	252156	3998	-999999	424471	-3	412096	0	Run5Proc	2	1	2	RunList	1	LowLargeED	8000	0	274147	0	274147	-1	274147	0	C5LowLargeEDBlockProc	n/a	n/a	n/a	n/a	n/a	n/a	n/a	n/a	n/a	n/a	n/a	n/a	1.0	1.0	1.0	Run5BlockList	4	n/a	n/a	n/a	n/a	n/a	n/a	n/a	n/a	n/a	n/a	n/a	n/a	n/a	n/a	n/a	n/a	n/a	n/a	n/a	n/a	n/a	n/a	n/a	n/a	n/a	n/a	n/a	n/a	n/a	n/a	n/a	n/a	n/a	n/a	n/a	n/a	n/a	n/a	n/a	n/a	n/a	n/a	4.0	1.0	4.0	n/a	n/a	n/a	n/a	n/a	n/a	n/a	n/a	n/a	n/a	n/a	n/a	n/a	n/a	n/a	n/a	n/a	n/a	n/a	n/a	n/a	n/a	n/a	n/a	n/a	n/a	n/a	n/a	n/a	n/a	n/a	n/a	n/a	n/a	n/a	n/a	n/a	n/a	n/a	n/a	n/a	n/a	n/a	n/a	n/a	C5_04.jpg	500	0	267650	-1	267650	0	TrialProc1	C5LowLargeEDBlockList	2500	0	265151	0	265151	0	265151	2499	d	1091	266242	12.997
16	2.5	000_R01_VB_allProc	56	1	"<?xml version=""1.0""?>\n<Clock xmlns:dt=""urn:schemas-microsoft-com:datatypes""><Description dt:dt=""string"">E-Prime Primary Realtime Clock</Description><StartTime><Timestamp dt:dt=""int"">0</Timestamp><DateUtc dt:dt=""string"">2019-07-23T21:38:14Z</DateUtc></StartTime><FrequencyChanges><FrequencyChange><Frequency dt:dt=""r8"">3020410</Frequency><Timestamp dt:dt=""r8"">2958812698330</Timestamp><Current dt:dt=""r8"">0</Current><DateUtc dt:dt=""string"">2019-07-23T21:38:14Z</DateUtc></FrequencyChange></FrequencyChanges></Clock>\n"	000_R01_VB_allProc-56-1	60.022	1.0.0.185	1	-419158361	Professional	2.0.10.356	2.0.10.356	07-23-2019	7/23/2019 9:38:15 PM	17:38:15	2.0.10.252	2	0	0	252156	17	252156	3998	-999999	424471	-3	412096	0	Run5Proc	2	1	2	RunList	1	LowLargeED	8000	0	274147	0	274147	-1	274147	0	C5LowLargeEDBlockProc	n/a	n/a	n/a	n/a	n/a	n/a	n/a	n/a	n/a	n/a	n/a	n/a	1.0	1.0	1.0	Run5BlockList	5	n/a	n/a	n/a	n/a	n/a	n/a	n/a	n/a	n/a	n/a	n/a	n/a	n/a	n/a	n/a	n/a	n/a	n/a	n/a	n/a	n/a	n/a	n/a	n/a	n/a	n/a	n/a	n/a	n/a	n/a	n/a	n/a	n/a	n/a	n/a	n/a	n/a	n/a	n/a	n/a	n/a	n/a	5.0	1.0	5.0	n/a	n/a	n/a	n/a	n/a	n/a	n/a	n/a	n/a	n/a	n/a	n/a	n/a	n/a	n/a	n/a	n/a	n/a	n/a	n/a	n/a	n/a	n/a	n/a	n/a	n/a	n/a	n/a	n/a	n/a	n/a	n/a	n/a	n/a	n/a	n/a	n/a	n/a	n/a	n/a	n/a	n/a	n/a	n/a	n/a	C5_05.jpg	500	0	270649	-1	270649	0	TrialProc1	C5LowLargeEDBlockList	2500	0	268150	0	268150	0	268150	2499	d	1036	269186	15.996
19	2.5	000_R01_VB_allProc	56	1	"<?xml version=""1.0""?>\n<Clock xmlns:dt=""urn:schemas-microsoft-com:datatypes""><Description dt:dt=""string"">E-Prime Primary Realtime Clock</Description><StartTime><Timestamp dt:dt=""int"">0</Timestamp><DateUtc dt:dt=""string"">2019-07-23T21:38:14Z</DateUtc></StartTime><FrequencyChanges><FrequencyChange><Frequency dt:dt=""r8"">3020410</Frequency><Timestamp dt:dt=""r8"">2958812698330</Timestamp><Current dt:dt=""r8"">0</Current><DateUtc dt:dt=""string"">2019-07-23T21:38:14Z</DateUtc></FrequencyChange></FrequencyChanges></Clock>\n"	000_R01_VB_allProc-56-1	60.022	1.0.0.185	1	-419158361	Professional	2.0.10.356	2.0.10.356	07-23-2019	7/23/2019 9:38:15 PM	17:38:15	2.0.10.252	2	0	0	252156	17	252156	3998	-999999	424471	-3	412096	0	Run5Proc	2	1	2	RunList	1	LowLargeED	8000	0	274147	0	274147	-1	274147	0	C5LowLargeEDBlockProc	n/a	n/a	n/a	n/a	n/a	n/a	n/a	n/a	n/a	n/a	n/a	n/a	1.0	1.0	1.0	Run5BlockList	6	n/a	n/a	n/a	n/a	n/a	n/a	n/a	n/a	n/a	n/a	n/a	n/a	n/a	n/a	n/a	n/a	n/a	n/a	n/a	n/a	n/a	n/a	n/a	n/a	n/a	n/a	n/a	n/a	n/a	n/a	n/a	n/a	n/a	n/a	n/a	n/a	n/a	n/a	n/a	n/a	n/a	n/a	6.0	1.0	6.0	n/a	n/a	n/a	n/a	n/a	n/a	n/a	n/a	n/a	n/a	n/a	n/a	n/a	n/a	n/a	n/a	n/a	n/a	n/a	n/a	n/a	n/a	n/a	n/a	n/a	n/a	n/a	n/a	n/a	n/a	n/a	n/a	n/a	n/a	n/a	n/a	n/a	n/a	n/a	n/a	n/a	n/a	n/a	n/a	n/a	C5_06.jpg	500	0	273648	-1	273648	0	TrialProc1	C5LowLargeEDBlockList	2500	0	271149	0	271149	0	271149	2499	d	1253	272402	18.994999999999997
30	2.5	000_R01_VB_allProc	56	1	"<?xml version=""1.0""?>\n<Clock xmlns:dt=""urn:schemas-microsoft-com:datatypes""><Description dt:dt=""string"">E-Prime Primary Realtime Clock</Description><StartTime><Timestamp dt:dt=""int"">0</Timestamp><DateUtc dt:dt=""string"">2019-07-23T21:38:14Z</DateUtc></StartTime><FrequencyChanges><FrequencyChange><Frequency dt:dt=""r8"">3020410</Frequency><Timestamp dt:dt=""r8"">2958812698330</Timestamp><Current dt:dt=""r8"">0</Current><DateUtc dt:dt=""string"">2019-07-23T21:38:14Z</DateUtc></FrequencyChange></FrequencyChanges></Clock>\n"	000_R01_VB_allProc-56-1	60.022	1.0.0.185	1	-419158361	Professional	2.0.10.356	2.0.10.356	07-23-2019	7/23/2019 9:38:15 PM	17:38:15	2.0.10.252	2	0	0	252156	17	252156	3998	-999999	424471	-3	412096	0	Run5Proc	2	1	2	RunList	2	OfficeSmall	8000	0	300138	0	300138	0	300138	0	F5OfficeSmallBlockProc	n/a	n/a	n/a	n/a	n/a	n/a	n/a	n/a	n/a	n/a	n/a	n/a	2.0	1.0	2.0	Run5BlockList	1	n/a	n/a	n/a	n/a	n/a	n/a	n/a	n/a	n/a	n/a	n/a	n/a	n/a	n/a	n/a	n/a	n/a	n/a	n/a	n/a	n/a	n/a	n/a	n/a	n/a	n/a	n/a	n/a	n/a	n/a	n/a	n/a	n/a	n/a	n/a	n/a	n/a	n/a	n/a	n/a	n/a	n/a	n/a	n/a	n/a	n/a	n/a	n/a	n/a	n/a	n/a	n/a	n/a	n/a	n/a	n/a	n/a	n/a	n/a	n/a	n/a	n/a	n/a	n/a	n/a	n/a	n/a	n/a	n/a	n/a	n/a	n/a	n/a	n/a	n/a	n/a	n/a	n/a	n/a	n/a	n/a	n/a	n/a	n/a	n/a	n/a	n/a	1.0	1.0	1.0	F5_01.jpg	500	0	284644	0	284644	0	TrialProc1	F5OfficeSmallBlockList	2500	1	282145	1	282145	-3	282144	2500	c	1650	283794	29.99
33	2.5	000_R01_VB_allProc	56	1	"<?xml version=""1.0""?>\n<Clock xmlns:dt=""urn:schemas-microsoft-com:datatypes""><Description dt:dt=""string"">E-Prime Primary Realtime Clock</Description><StartTime><Timestamp dt:dt=""int"">0</Timestamp><DateUtc dt:dt=""string"">2019-07-23T21:38:14Z</DateUtc></StartTime><FrequencyChanges><FrequencyChange><Frequency dt:dt=""r8"">3020410</Frequency><Timestamp dt:dt=""r8"">2958812698330</Timestamp><Current dt:dt=""r8"">0</Current><DateUtc dt:dt=""string"">2019-07-23T21:38:14Z</DateUtc></FrequencyChange></FrequencyChanges></Clock>\n"	000_R01_VB_allProc-56-1	60.022	1.0.0.185	1	-419158361	Professional	2.0.10.356	2.0.10.356	07-23-2019	7/23/2019 9:38:15 PM	17:38:15	2.0.10.252	2	0	0	252156	17	252156	3998	-999999	424471	-3	412096	0	Run5Proc	2	1	2	RunList	2	OfficeSmall	8000	0	300138	0	300138	0	300138	0	F5OfficeSmallBlockProc	n/a	n/a	n/a	n/a	n/a	n/a	n/a	n/a	n/a	n/a	n/a	n/a	2.0	1.0	2.0	Run5BlockList	2	n/a	n/a	n/a	n/a	n/a	n/a	n/a	n/a	n/a	n/a	n/a	n/a	n/a	n/a	n/a	n/a	n/a	n/a	n/a	n/a	n/a	n/a	n/a	n/a	n/a	n/a	n/a	n/a	n/a	n/a	n/a	n/a	n/a	n/a	n/a	n/a	n/a	n/a	n/a	n/a	n/a	n/a	n/a	n/a	n/a	n/a	n/a	n/a	n/a	n/a	n/a	n/a	n/a	n/a	n/a	n/a	n/a	n/a	n/a	n/a	n/a	n/a	n/a	n/a	n/a	n/a	n/a	n/a	n/a	n/a	n/a	n/a	n/a	n/a	n/a	n/a	n/a	n/a	n/a	n/a	n/a	n/a	n/a	n/a	n/a	n/a	n/a	2.0	1.0	2.0	F5_02.jpg	500	0	287642	-1	287642	0	TrialProc1	F5OfficeSmallBlockList	2500	0	285143	0	285143	-1	285143	2499	c	1099	286242	32.989000000000004
36	2.5	000_R01_VB_allProc	56	1	"<?xml version=""1.0""?>\n<Clock xmlns:dt=""urn:schemas-microsoft-com:datatypes""><Description dt:dt=""string"">E-Prime Primary Realtime Clock</Description><StartTime><Timestamp dt:dt=""int"">0</Timestamp><DateUtc dt:dt=""string"">2019-07-23T21:38:14Z</DateUtc></StartTime><FrequencyChanges><FrequencyChange><Frequency dt:dt=""r8"">3020410</Frequency><Timestamp dt:dt=""r8"">2958812698330</Timestamp><Current dt:dt=""r8"">0</Current><DateUtc dt:dt=""string"">2019-07-23T21:38:14Z</DateUtc></FrequencyChange></FrequencyChanges></Clock>\n"	000_R01_VB_allProc-56-1	60.022	1.0.0.185	1	-419158361	Professional	2.0.10.356	2.0.10.356	07-23-2019	7/23/2019 9:38:15 PM	17:38:15	2.0.10.252	2	0	0	252156	17	252156	3998	-999999	424471	-3	412096	0	Run5Proc	2	1	2	RunList	2	OfficeSmall	8000	0	300138	0	300138	0	300138	0	F5OfficeSmallBlockProc	n/a	n/a	n/a	n/a	n/a	n/a	n/a	n/a	n/a	n/a	n/a	n/a	2.0	1.0	2.0	Run5BlockList	3	n/a	n/a	n/a	n/a	n/a	n/a	n/a	n/a	n/a	n/a	n/a	n/a	n/a	n/a	n/a	n/a	n/a	n/a	n/a	n/a	n/a	n/a	n/a	n/a	n/a	n/a	n/a	n/a	n/a	n/a	n/a	n/a	n/a	n/a	n/a	n/a	n/a	n/a	n/a	n/a	n/a	n/a	n/a	n/a	n/a	n/a	n/a	n/a	n/a	n/a	n/a	n/a	n/a	n/a	n/a	n/a	n/a	n/a	n/a	n/a	n/a	n/a	n/a	n/a	n/a	n/a	n/a	n/a	n/a	n/a	n/a	n/a	n/a	n/a	n/a	n/a	n/a	n/a	n/a	n/a	n/a	n/a	n/a	n/a	n/a	n/a	n/a	3.0	1.0	3.0	F5_03.jpg	500	0	290641	-1	290641	0	TrialProc1	F5OfficeSmallBlockList	2500	0	288142	0	288142	0	288142	2499	c	1268	289410	35.988
39	2.5	000_R01_VB_allProc	56	1	"<?xml version=""1.0""?>\n<Clock xmlns:dt=""urn:schemas-microsoft-com:datatypes""><Description dt:dt=""string"">E-Prime Primary Realtime Clock</Description><StartTime><Timestamp dt:dt=""int"">0</Timestamp><DateUtc dt:dt=""string"">2019-07-23T21:38:14Z</DateUtc></StartTime><FrequencyChanges><FrequencyChange><Frequency dt:dt=""r8"">3020410</Frequency><Timestamp dt:dt=""r8"">2958812698330</Timestamp><Current dt:dt=""r8"">0</Current><DateUtc dt:dt=""string"">2019-07-23T21:38:14Z</DateUtc></FrequencyChange></FrequencyChanges></Clock>\n"	000_R01_VB_allProc-56-1	60.022	1.0.0.185	1	-419158361	Professional	2.0.10.356	2.0.10.356	07-23-2019	7/23/2019 9:38:15 PM	17:38:15	2.0.10.252	2	0	0	252156	17	252156	3998	-999999	424471	-3	412096	0	Run5Proc	2	1	2	RunList	2	OfficeSmall	8000	0	300138	0	300138	0	300138	0	F5OfficeSmallBlockProc	n/a	n/a	n/a	n/a	n/a	n/a	n/a	n/a	n/a	n/a	n/a	n/a	2.0	1.0	2.0	Run5BlockList	4	n/a	n/a	n/a	n/a	n/a	n/a	n/a	n/a	n/a	n/a	n/a	n/a	n/a	n/a	n/a	n/a	n/a	n/a	n/a	n/a	n/a	n/a	n/a	n/a	n/a	n/a	n/a	n/a	n/a	n/a	n/a	n/a	n/a	n/a	n/a	n/a	n/a	n/a	n/a	n/a	n/a	n/a	n/a	n/a	n/a	n/a	n/a	n/a	n/a	n/a	n/a	n/a	n/a	n/a	n/a	n/a	n/a	n/a	n/a	n/a	n/a	n/a	n/a	n/a	n/a	n/a	n/a	n/a	n/a	n/a	n/a	n/a	n/a	n/a	n/a	n/a	n/a	n/a	n/a	n/a	n/a	n/a	n/a	n/a	n/a	n/a	n/a	4.0	1.0	4.0	F5_04.jpg	500	0	293640	-1	293640	0	TrialProc1	F5OfficeSmallBlockList	2500	0	291141	0	291141	0	291141	2499	c	909	292050	38.987
42	2.5	000_R01_VB_allProc	56	1	"<?xml version=""1.0""?>\n<Clock xmlns:dt=""urn:schemas-microsoft-com:datatypes""><Description dt:dt=""string"">E-Prime Primary Realtime Clock</Description><StartTime><Timestamp dt:dt=""int"">0</Timestamp><DateUtc dt:dt=""string"">2019-07-23T21:38:14Z</DateUtc></StartTime><FrequencyChanges><FrequencyChange><Frequency dt:dt=""r8"">3020410</Frequency><Timestamp dt:dt=""r8"">2958812698330</Timestamp><Current dt:dt=""r8"">0</Current><DateUtc dt:dt=""string"">2019-07-23T21:38:14Z</DateUtc></FrequencyChange></FrequencyChanges></Clock>\n"	000_R01_VB_allProc-56-1	60.022	1.0.0.185	1	-419158361	Professional	2.0.10.356	2.0.10.356	07-23-2019	7/23/2019 9:38:15 PM	17:38:15	2.0.10.252	2	0	0	252156	17	252156	3998	-999999	424471	-3	412096	0	Run5Proc	2	1	2	RunList	2	OfficeSmall	8000	0	300138	0	300138	0	300138	0	F5OfficeSmallBlockProc	n/a	n/a	n/a	n/a	n/a	n/a	n/a	n/a	n/a	n/a	n/a	n/a	2.0	1.0	2.0	Run5BlockList	5	n/a	n/a	n/a	n/a	n/a	n/a	n/a	n/a	n/a	n/a	n/a	n/a	n/a	n/a	n/a	n/a	n/a	n/a	n/a	n/a	n/a	n/a	n/a	n/a	n/a	n/a	n/a	n/a	n/a	n/a	n/a	n/a	n/a	n/a	n/a	n/a	n/a	n/a	n/a	n/a	n/a	n/a	n/a	n/a	n/a	n/a	n/a	n/a	n/a	n/a	n/a	n/a	n/a	n/a	n/a	n/a	n/a	n/a	n/a	n/a	n/a	n/a	n/a	n/a	n/a	n/a	n/a	n/a	n/a	n/a	n/a	n/a	n/a	n/a	n/a	n/a	n/a	n/a	n/a	n/a	n/a	n/a	n/a	n/a	n/a	n/a	n/a	5.0	1.0	5.0	F5_05.jpg	500	0	296639	-1	296639	0	TrialProc1	F5OfficeSmallBlockList	2500	0	294140	0	294140	0	294140	2499	c	966	295106	41.986
45	2.5	000_R01_VB_allProc	56	1	"<?xml version=""1.0""?>\n<Clock xmlns:dt=""urn:schemas-microsoft-com:datatypes""><Description dt:dt=""string"">E-Prime Primary Realtime Clock</Description><StartTime><Timestamp dt:dt=""int"">0</Timestamp><DateUtc dt:dt=""string"">2019-07-23T21:38:14Z</DateUtc></StartTime><FrequencyChanges><FrequencyChange><Frequency dt:dt=""r8"">3020410</Frequency><Timestamp dt:dt=""r8"">2958812698330</Timestamp><Current dt:dt=""r8"">0</Current><DateUtc dt:dt=""string"">2019-07-23T21:38:14Z</DateUtc></FrequencyChange></FrequencyChanges></Clock>\n"	000_R01_VB_allProc-56-1	60.022	1.0.0.185	1	-419158361	Professional	2.0.10.356	2.0.10.356	07-23-2019	7/23/2019 9:38:15 PM	17:38:15	2.0.10.252	2	0	0	252156	17	252156	3998	-999999	424471	-3	412096	0	Run5Proc	2	1	2	RunList	2	OfficeSmall	8000	0	300138	0	300138	0	300138	0	F5OfficeSmallBlockProc	n/a	n/a	n/a	n/a	n/a	n/a	n/a	n/a	n/a	n/a	n/a	n/a	2.0	1.0	2.0	Run5BlockList	6	n/a	n/a	n/a	n/a	n/a	n/a	n/a	n/a	n/a	n/a	n/a	n/a	n/a	n/a	n/a	n/a	n/a	n/a	n/a	n/a	n/a	n/a	n/a	n/a	n/a	n/a	n/a	n/a	n/a	n/a	n/a	n/a	n/a	n/a	n/a	n/a	n/a	n/a	n/a	n/a	n/a	n/a	n/a	n/a	n/a	n/a	n/a	n/a	n/a	n/a	n/a	n/a	n/a	n/a	n/a	n/a	n/a	n/a	n/a	n/a	n/a	n/a	n/a	n/a	n/a	n/a	n/a	n/a	n/a	n/a	n/a	n/a	n/a	n/a	n/a	n/a	n/a	n/a	n/a	n/a	n/a	n/a	n/a	n/a	n/a	n/a	n/a	6.0	1.0	6.0	F5_06.jpg	500	0	299638	-1	299638	0	TrialProc1	F5OfficeSmallBlockList	2500	0	297139	0	297139	0	297139	2499	c	967	298106	44.985
56	2.5	000_R01_VB_allProc	56	1	"<?xml version=""1.0""?>\n<Clock xmlns:dt=""urn:schemas-microsoft-com:datatypes""><Description dt:dt=""string"">E-Prime Primary Realtime Clock</Description><StartTime><Timestamp dt:dt=""int"">0</Timestamp><DateUtc dt:dt=""string"">2019-07-23T21:38:14Z</DateUtc></StartTime><FrequencyChanges><FrequencyChange><Frequency dt:dt=""r8"">3020410</Frequency><Timestamp dt:dt=""r8"">2958812698330</Timestamp><Current dt:dt=""r8"">0</Current><DateUtc dt:dt=""string"">2019-07-23T21:38:14Z</DateUtc></FrequencyChange></FrequencyChanges></Clock>\n"	000_R01_VB_allProc-56-1	60.022	1.0.0.185	1	-419158361	Professional	2.0.10.356	2.0.10.356	07-23-2019	7/23/2019 9:38:15 PM	17:38:15	2.0.10.252	2	0	0	252156	17	252156	3998	-999999	424471	-3	412096	0	Run5Proc	2	1	2	RunList	3	HighSmallED	8000	0	326128	0	326128	0	326128	0	B5HighSmallEDBlockProc	n/a	n/a	n/a	n/a	n/a	n/a	n/a	n/a	n/a	n/a	n/a	n/a	3.0	1.0	3.0	Run5BlockList	1	n/a	n/a	n/a	n/a	n/a	n/a	n/a	n/a	n/a	n/a	n/a	n/a	n/a	n/a	n/a	n/a	n/a	n/a	n/a	n/a	n/a	n/a	n/a	n/a	n/a	n/a	n/a	1.0	1.0	1.0	n/a	n/a	n/a	n/a	n/a	n/a	n/a	n/a	n/a	n/a	n/a	n/a	n/a	n/a	n/a	n/a	n/a	n/a	n/a	n/a	n/a	n/a	n/a	n/a	n/a	n/a	n/a	n/a	n/a	n/a	n/a	n/a	n/a	n/a	n/a	n/a	n/a	n/a	n/a	n/a	n/a	n/a	n/a	n/a	n/a	n/a	n/a	n/a	n/a	n/a	n/a	n/a	n/a	n/a	n/a	n/a	n/a	n/a	n/a	n/a	B5_01.jpg	500	0	310634	-1	310634	0	TrialProc1	B5HighSmallEDBlockList	2500	0	308135	0	308135	-3	308135	2499	d	1867	310002	55.981
59	2.5	000_R01_VB_allProc	56	1	"<?xml version=""1.0""?>\n<Clock xmlns:dt=""urn:schemas-microsoft-com:datatypes""><Description dt:dt=""string"">E-Prime Primary Realtime Clock</Description><StartTime><Timestamp dt:dt=""int"">0</Timestamp><DateUtc dt:dt=""string"">2019-07-23T21:38:14Z</DateUtc></StartTime><FrequencyChanges><FrequencyChange><Frequency dt:dt=""r8"">3020410</Frequency><Timestamp dt:dt=""r8"">2958812698330</Timestamp><Current dt:dt=""r8"">0</Current><DateUtc dt:dt=""string"">2019-07-23T21:38:14Z</DateUtc></FrequencyChange></FrequencyChanges></Clock>\n"	000_R01_VB_allProc-56-1	60.022	1.0.0.185	1	-419158361	Professional	2.0.10.356	2.0.10.356	07-23-2019	7/23/2019 9:38:15 PM	17:38:15	2.0.10.252	2	0	0	252156	17	252156	3998	-999999	424471	-3	412096	0	Run5Proc	2	1	2	RunList	3	HighSmallED	8000	0	326128	0	326128	0	326128	0	B5HighSmallEDBlockProc	n/a	n/a	n/a	n/a	n/a	n/a	n/a	n/a	n/a	n/a	n/a	n/a	3.0	1.0	3.0	Run5BlockList	2	n/a	n/a	n/a	n/a	n/a	n/a	n/a	n/a	n/a	n/a	n/a	n/a	n/a	n/a	n/a	n/a	n/a	n/a	n/a	n/a	n/a	n/a	n/a	n/a	n/a	n/a	n/a	2.0	1.0	2.0	n/a	n/a	n/a	n/a	n/a	n/a	n/a	n/a	n/a	n/a	n/a	n/a	n/a	n/a	n/a	n/a	n/a	n/a	n/a	n/a	n/a	n/a	n/a	n/a	n/a	n/a	n/a	n/a	n/a	n/a	n/a	n/a	n/a	n/a	n/a	n/a	n/a	n/a	n/a	n/a	n/a	n/a	n/a	n/a	n/a	n/a	n/a	n/a	n/a	n/a	n/a	n/a	n/a	n/a	n/a	n/a	n/a	n/a	n/a	n/a	B5_02.jpg	500	0	313633	-1	313633	0	TrialProc1	B5HighSmallEDBlockList	2500	0	311134	0	311134	0	311134	2499	d	1532	312666	58.98
62	2.5	000_R01_VB_allProc	56	1	"<?xml version=""1.0""?>\n<Clock xmlns:dt=""urn:schemas-microsoft-com:datatypes""><Description dt:dt=""string"">E-Prime Primary Realtime Clock</Description><StartTime><Timestamp dt:dt=""int"">0</Timestamp><DateUtc dt:dt=""string"">2019-07-23T21:38:14Z</DateUtc></StartTime><FrequencyChanges><FrequencyChange><Frequency dt:dt=""r8"">3020410</Frequency><Timestamp dt:dt=""r8"">2958812698330</Timestamp><Current dt:dt=""r8"">0</Current><DateUtc dt:dt=""string"">2019-07-23T21:38:14Z</DateUtc></FrequencyChange></FrequencyChanges></Clock>\n"	000_R01_VB_allProc-56-1	60.022	1.0.0.185	1	-419158361	Professional	2.0.10.356	2.0.10.356	07-23-2019	7/23/2019 9:38:15 PM	17:38:15	2.0.10.252	2	0	0	252156	17	252156	3998	-999999	424471	-3	412096	0	Run5Proc	2	1	2	RunList	3	HighSmallED	8000	0	326128	0	326128	0	326128	0	B5HighSmallEDBlockProc	n/a	n/a	n/a	n/a	n/a	n/a	n/a	n/a	n/a	n/a	n/a	n/a	3.0	1.0	3.0	Run5BlockList	3	n/a	n/a	n/a	n/a	n/a	n/a	n/a	n/a	n/a	n/a	n/a	n/a	n/a	n/a	n/a	n/a	n/a	n/a	n/a	n/a	n/a	n/a	n/a	n/a	n/a	n/a	n/a	3.0	1.0	3.0	n/a	n/a	n/a	n/a	n/a	n/a	n/a	n/a	n/a	n/a	n/a	n/a	n/a	n/a	n/a	n/a	n/a	n/a	n/a	n/a	n/a	n/a	n/a	n/a	n/a	n/a	n/a	n/a	n/a	n/a	n/a	n/a	n/a	n/a	n/a	n/a	n/a	n/a	n/a	n/a	n/a	n/a	n/a	n/a	n/a	n/a	n/a	n/a	n/a	n/a	n/a	n/a	n/a	n/a	n/a	n/a	n/a	n/a	n/a	n/a	B5_03.jpg	500	0	316632	-1	316632	0	TrialProc1	B5HighSmallEDBlockList	2500	0	314133	0	314133	0	314133	2499	c	1325	315458	61.979
65	2.5	000_R01_VB_allProc	56	1	"<?xml version=""1.0""?>\n<Clock xmlns:dt=""urn:schemas-microsoft-com:datatypes""><Description dt:dt=""string"">E-Prime Primary Realtime Clock</Description><StartTime><Timestamp dt:dt=""int"">0</Timestamp><DateUtc dt:dt=""string"">2019-07-23T21:38:14Z</DateUtc></StartTime><FrequencyChanges><FrequencyChange><Frequency dt:dt=""r8"">3020410</Frequency><Timestamp dt:dt=""r8"">2958812698330</Timestamp><Current dt:dt=""r8"">0</Current><DateUtc dt:dt=""string"">2019-07-23T21:38:14Z</DateUtc></FrequencyChange></FrequencyChanges></Clock>\n"	000_R01_VB_allProc-56-1	60.022	1.0.0.185	1	-419158361	Professional	2.0.10.356	2.0.10.356	07-23-2019	7/23/2019 9:38:15 PM	17:38:15	2.0.10.252	2	0	0	252156	17	252156	3998	-999999	424471	-3	412096	0	Run5Proc	2	1	2	RunList	3	HighSmallED	8000	0	326128	0	326128	0	326128	0	B5HighSmallEDBlockProc	n/a	n/a	n/a	n/a	n/a	n/a	n/a	n/a	n/a	n/a	n/a	n/a	3.0	1.0	3.0	Run5BlockList	4	n/a	n/a	n/a	n/a	n/a	n/a	n/a	n/a	n/a	n/a	n/a	n/a	n/a	n/a	n/a	n/a	n/a	n/a	n/a	n/a	n/a	n/a	n/a	n/a	n/a	n/a	n/a	4.0	1.0	4.0	n/a	n/a	n/a	n/a	n/a	n/a	n/a	n/a	n/a	n/a	n/a	n/a	n/a	n/a	n/a	n/a	n/a	n/a	n/a	n/a	n/a	n/a	n/a	n/a	n/a	n/a	n/a	n/a	n/a	n/a	n/a	n/a	n/a	n/a	n/a	n/a	n/a	n/a	n/a	n/a	n/a	n/a	n/a	n/a	n/a	n/a	n/a	n/a	n/a	n/a	n/a	n/a	n/a	n/a	n/a	n/a	n/a	n/a	n/a	n/a	B5_04.jpg	500	1	319631	-1	319630	0	TrialProc1	B5HighSmallEDBlockList	2500	0	317131	0	317131	-1	317131	2499	d	1078	318209	64.977
68	2.5	000_R01_VB_allProc	56	1	"<?xml version=""1.0""?>\n<Clock xmlns:dt=""urn:schemas-microsoft-com:datatypes""><Description dt:dt=""string"">E-Prime Primary Realtime Clock</Description><StartTime><Timestamp dt:dt=""int"">0</Timestamp><DateUtc dt:dt=""string"">2019-07-23T21:38:14Z</DateUtc></StartTime><FrequencyChanges><FrequencyChange><Frequency dt:dt=""r8"">3020410</Frequency><Timestamp dt:dt=""r8"">2958812698330</Timestamp><Current dt:dt=""r8"">0</Current><DateUtc dt:dt=""string"">2019-07-23T21:38:14Z</DateUtc></FrequencyChange></FrequencyChanges></Clock>\n"	000_R01_VB_allProc-56-1	60.022	1.0.0.185	1	-419158361	Professional	2.0.10.356	2.0.10.356	07-23-2019	7/23/2019 9:38:15 PM	17:38:15	2.0.10.252	2	0	0	252156	17	252156	3998	-999999	424471	-3	412096	0	Run5Proc	2	1	2	RunList	3	HighSmallED	8000	0	326128	0	326128	0	326128	0	B5HighSmallEDBlockProc	n/a	n/a	n/a	n/a	n/a	n/a	n/a	n/a	n/a	n/a	n/a	n/a	3.0	1.0	3.0	Run5BlockList	5	n/a	n/a	n/a	n/a	n/a	n/a	n/a	n/a	n/a	n/a	n/a	n/a	n/a	n/a	n/a	n/a	n/a	n/a	n/a	n/a	n/a	n/a	n/a	n/a	n/a	n/a	n/a	5.0	1.0	5.0	n/a	n/a	n/a	n/a	n/a	n/a	n/a	n/a	n/a	n/a	n/a	n/a	n/a	n/a	n/a	n/a	n/a	n/a	n/a	n/a	n/a	n/a	n/a	n/a	n/a	n/a	n/a	n/a	n/a	n/a	n/a	n/a	n/a	n/a	n/a	n/a	n/a	n/a	n/a	n/a	n/a	n/a	n/a	n/a	n/a	n/a	n/a	n/a	n/a	n/a	n/a	n/a	n/a	n/a	n/a	n/a	n/a	n/a	n/a	n/a	B5_05.jpg	500	0	322629	-1	322629	0	TrialProc1	B5HighSmallEDBlockList	2500	0	320130	0	320130	0	320130	2499	d	1279	321409	67.976
71	2.5	000_R01_VB_allProc	56	1	"<?xml version=""1.0""?>\n<Clock xmlns:dt=""urn:schemas-microsoft-com:datatypes""><Description dt:dt=""string"">E-Prime Primary Realtime Clock</Description><StartTime><Timestamp dt:dt=""int"">0</Timestamp><DateUtc dt:dt=""string"">2019-07-23T21:38:14Z</DateUtc></StartTime><FrequencyChanges><FrequencyChange><Frequency dt:dt=""r8"">3020410</Frequency><Timestamp dt:dt=""r8"">2958812698330</Timestamp><Current dt:dt=""r8"">0</Current><DateUtc dt:dt=""string"">2019-07-23T21:38:14Z</DateUtc></FrequencyChange></FrequencyChanges></Clock>\n"	000_R01_VB_allProc-56-1	60.022	1.0.0.185	1	-419158361	Professional	2.0.10.356	2.0.10.356	07-23-2019	7/23/2019 9:38:15 PM	17:38:15	2.0.10.252	2	0	0	252156	17	252156	3998	-999999	424471	-3	412096	0	Run5Proc	2	1	2	RunList	3	HighSmallED	8000	0	326128	0	326128	0	326128	0	B5HighSmallEDBlockProc	n/a	n/a	n/a	n/a	n/a	n/a	n/a	n/a	n/a	n/a	n/a	n/a	3.0	1.0	3.0	Run5BlockList	6	n/a	n/a	n/a	n/a	n/a	n/a	n/a	n/a	n/a	n/a	n/a	n/a	n/a	n/a	n/a	n/a	n/a	n/a	n/a	n/a	n/a	n/a	n/a	n/a	n/a	n/a	n/a	6.0	1.0	6.0	n/a	n/a	n/a	n/a	n/a	n/a	n/a	n/a	n/a	n/a	n/a	n/a	n/a	n/a	n/a	n/a	n/a	n/a	n/a	n/a	n/a	n/a	n/a	n/a	n/a	n/a	n/a	n/a	n/a	n/a	n/a	n/a	n/a	n/a	n/a	n/a	n/a	n/a	n/a	n/a	n/a	n/a	n/a	n/a	n/a	n/a	n/a	n/a	n/a	n/a	n/a	n/a	n/a	n/a	n/a	n/a	n/a	n/a	n/a	n/a	B5_06.jpg	500	0	325628	-1	325628	0	TrialProc1	B5HighSmallEDBlockList	2500	0	323129	0	323129	0	323129	2499	d	1000	324129	70.975
82	2.5	000_R01_VB_allProc	56	1	"<?xml version=""1.0""?>\n<Clock xmlns:dt=""urn:schemas-microsoft-com:datatypes""><Description dt:dt=""string"">E-Prime Primary Realtime Clock</Description><StartTime><Timestamp dt:dt=""int"">0</Timestamp><DateUtc dt:dt=""string"">2019-07-23T21:38:14Z</DateUtc></StartTime><FrequencyChanges><FrequencyChange><Frequency dt:dt=""r8"">3020410</Frequency><Timestamp dt:dt=""r8"">2958812698330</Timestamp><Current dt:dt=""r8"">0</Current><DateUtc dt:dt=""string"">2019-07-23T21:38:14Z</DateUtc></FrequencyChange></FrequencyChanges></Clock>\n"	000_R01_VB_allProc-56-1	60.022	1.0.0.185	1	-419158361	Professional	2.0.10.356	2.0.10.356	07-23-2019	7/23/2019 9:38:15 PM	17:38:15	2.0.10.252	2	0	0	252156	17	252156	3998	-999999	424471	-3	412096	0	Run5Proc	2	1	2	RunList	4	OfficeLarge	8000	0	352118	0	352118	-1	352118	0	E5OfficeLargeBlockProc	n/a	n/a	n/a	n/a	n/a	n/a	n/a	n/a	n/a	n/a	n/a	n/a	4.0	1.0	4.0	Run5BlockList	1	n/a	n/a	n/a	n/a	n/a	n/a	n/a	n/a	n/a	n/a	n/a	n/a	n/a	n/a	n/a	n/a	n/a	n/a	n/a	n/a	n/a	n/a	n/a	n/a	n/a	n/a	n/a	n/a	n/a	n/a	n/a	n/a	n/a	n/a	n/a	n/a	n/a	n/a	n/a	n/a	n/a	n/a	n/a	n/a	n/a	n/a	n/a	n/a	n/a	n/a	n/a	n/a	n/a	n/a	n/a	n/a	n/a	n/a	n/a	n/a	n/a	n/a	n/a	n/a	n/a	n/a	n/a	n/a	n/a	n/a	n/a	n/a	1.0	1.0	1.0	n/a	n/a	n/a	n/a	n/a	n/a	n/a	n/a	n/a	n/a	n/a	n/a	n/a	n/a	n/a	E5_01.jpg	500	0	336624	-1	336624	0	TrialProc1	E5OfficeLargeBlockList	2500	0	334125	0	334125	-3	334125	2499	c	1228	335353	81.971
85	2.5	000_R01_VB_allProc	56	1	"<?xml version=""1.0""?>\n<Clock xmlns:dt=""urn:schemas-microsoft-com:datatypes""><Description dt:dt=""string"">E-Prime Primary Realtime Clock</Description><StartTime><Timestamp dt:dt=""int"">0</Timestamp><DateUtc dt:dt=""string"">2019-07-23T21:38:14Z</DateUtc></StartTime><FrequencyChanges><FrequencyChange><Frequency dt:dt=""r8"">3020410</Frequency><Timestamp dt:dt=""r8"">2958812698330</Timestamp><Current dt:dt=""r8"">0</Current><DateUtc dt:dt=""string"">2019-07-23T21:38:14Z</DateUtc></FrequencyChange></FrequencyChanges></Clock>\n"	000_R01_VB_allProc-56-1	60.022	1.0.0.185	1	-419158361	Professional	2.0.10.356	2.0.10.356	07-23-2019	7/23/2019 9:38:15 PM	17:38:15	2.0.10.252	2	0	0	252156	17	252156	3998	-999999	424471	-3	412096	0	Run5Proc	2	1	2	RunList	4	OfficeLarge	8000	0	352118	0	352118	-1	352118	0	E5OfficeLargeBlockProc	n/a	n/a	n/a	n/a	n/a	n/a	n/a	n/a	n/a	n/a	n/a	n/a	4.0	1.0	4.0	Run5BlockList	2	n/a	n/a	n/a	n/a	n/a	n/a	n/a	n/a	n/a	n/a	n/a	n/a	n/a	n/a	n/a	n/a	n/a	n/a	n/a	n/a	n/a	n/a	n/a	n/a	n/a	n/a	n/a	n/a	n/a	n/a	n/a	n/a	n/a	n/a	n/a	n/a	n/a	n/a	n/a	n/a	n/a	n/a	n/a	n/a	n/a	n/a	n/a	n/a	n/a	n/a	n/a	n/a	n/a	n/a	n/a	n/a	n/a	n/a	n/a	n/a	n/a	n/a	n/a	n/a	n/a	n/a	n/a	n/a	n/a	n/a	n/a	n/a	2.0	1.0	2.0	n/a	n/a	n/a	n/a	n/a	n/a	n/a	n/a	n/a	n/a	n/a	n/a	n/a	n/a	n/a	E5_02.jpg	500	0	339623	-1	339623	0	TrialProc1	E5OfficeLargeBlockList	2500	0	337124	0	337124	0	337124	2499	c	1189	338313	84.97
88	2.5	000_R01_VB_allProc	56	1	"<?xml version=""1.0""?>\n<Clock xmlns:dt=""urn:schemas-microsoft-com:datatypes""><Description dt:dt=""string"">E-Prime Primary Realtime Clock</Description><StartTime><Timestamp dt:dt=""int"">0</Timestamp><DateUtc dt:dt=""string"">2019-07-23T21:38:14Z</DateUtc></StartTime><FrequencyChanges><FrequencyChange><Frequency dt:dt=""r8"">3020410</Frequency><Timestamp dt:dt=""r8"">2958812698330</Timestamp><Current dt:dt=""r8"">0</Current><DateUtc dt:dt=""string"">2019-07-23T21:38:14Z</DateUtc></FrequencyChange></FrequencyChanges></Clock>\n"	000_R01_VB_allProc-56-1	60.022	1.0.0.185	1	-419158361	Professional	2.0.10.356	2.0.10.356	07-23-2019	7/23/2019 9:38:15 PM	17:38:15	2.0.10.252	2	0	0	252156	17	252156	3998	-999999	424471	-3	412096	0	Run5Proc	2	1	2	RunList	4	OfficeLarge	8000	0	352118	0	352118	-1	352118	0	E5OfficeLargeBlockProc	n/a	n/a	n/a	n/a	n/a	n/a	n/a	n/a	n/a	n/a	n/a	n/a	4.0	1.0	4.0	Run5BlockList	3	n/a	n/a	n/a	n/a	n/a	n/a	n/a	n/a	n/a	n/a	n/a	n/a	n/a	n/a	n/a	n/a	n/a	n/a	n/a	n/a	n/a	n/a	n/a	n/a	n/a	n/a	n/a	n/a	n/a	n/a	n/a	n/a	n/a	n/a	n/a	n/a	n/a	n/a	n/a	n/a	n/a	n/a	n/a	n/a	n/a	n/a	n/a	n/a	n/a	n/a	n/a	n/a	n/a	n/a	n/a	n/a	n/a	n/a	n/a	n/a	n/a	n/a	n/a	n/a	n/a	n/a	n/a	n/a	n/a	n/a	n/a	n/a	3.0	1.0	3.0	n/a	n/a	n/a	n/a	n/a	n/a	n/a	n/a	n/a	n/a	n/a	n/a	n/a	n/a	n/a	E5_03.jpg	500	0	342622	-1	342622	0	TrialProc1	E5OfficeLargeBlockList	2500	0	340123	0	340123	0	340123	2499	c	1174	341297	87.969
91	2.5	000_R01_VB_allProc	56	1	"<?xml version=""1.0""?>\n<Clock xmlns:dt=""urn:schemas-microsoft-com:datatypes""><Description dt:dt=""string"">E-Prime Primary Realtime Clock</Description><StartTime><Timestamp dt:dt=""int"">0</Timestamp><DateUtc dt:dt=""string"">2019-07-23T21:38:14Z</DateUtc></StartTime><FrequencyChanges><FrequencyChange><Frequency dt:dt=""r8"">3020410</Frequency><Timestamp dt:dt=""r8"">2958812698330</Timestamp><Current dt:dt=""r8"">0</Current><DateUtc dt:dt=""string"">2019-07-23T21:38:14Z</DateUtc></FrequencyChange></FrequencyChanges></Clock>\n"	000_R01_VB_allProc-56-1	60.022	1.0.0.185	1	-419158361	Professional	2.0.10.356	2.0.10.356	07-23-2019	7/23/2019 9:38:15 PM	17:38:15	2.0.10.252	2	0	0	252156	17	252156	3998	-999999	424471	-3	412096	0	Run5Proc	2	1	2	RunList	4	OfficeLarge	8000	0	352118	0	352118	-1	352118	0	E5OfficeLargeBlockProc	n/a	n/a	n/a	n/a	n/a	n/a	n/a	n/a	n/a	n/a	n/a	n/a	4.0	1.0	4.0	Run5BlockList	4	n/a	n/a	n/a	n/a	n/a	n/a	n/a	n/a	n/a	n/a	n/a	n/a	n/a	n/a	n/a	n/a	n/a	n/a	n/a	n/a	n/a	n/a	n/a	n/a	n/a	n/a	n/a	n/a	n/a	n/a	n/a	n/a	n/a	n/a	n/a	n/a	n/a	n/a	n/a	n/a	n/a	n/a	n/a	n/a	n/a	n/a	n/a	n/a	n/a	n/a	n/a	n/a	n/a	n/a	n/a	n/a	n/a	n/a	n/a	n/a	n/a	n/a	n/a	n/a	n/a	n/a	n/a	n/a	n/a	n/a	n/a	n/a	4.0	1.0	4.0	n/a	n/a	n/a	n/a	n/a	n/a	n/a	n/a	n/a	n/a	n/a	n/a	n/a	n/a	n/a	E5_04.jpg	500	0	345621	-1	345621	0	TrialProc1	E5OfficeLargeBlockList	2500	0	343122	0	343122	0	343122	2499	c	1167	344289	90.968
94	2.5	000_R01_VB_allProc	56	1	"<?xml version=""1.0""?>\n<Clock xmlns:dt=""urn:schemas-microsoft-com:datatypes""><Description dt:dt=""string"">E-Prime Primary Realtime Clock</Description><StartTime><Timestamp dt:dt=""int"">0</Timestamp><DateUtc dt:dt=""string"">2019-07-23T21:38:14Z</DateUtc></StartTime><FrequencyChanges><FrequencyChange><Frequency dt:dt=""r8"">3020410</Frequency><Timestamp dt:dt=""r8"">2958812698330</Timestamp><Current dt:dt=""r8"">0</Current><DateUtc dt:dt=""string"">2019-07-23T21:38:14Z</DateUtc></FrequencyChange></FrequencyChanges></Clock>\n"	000_R01_VB_allProc-56-1	60.022	1.0.0.185	1	-419158361	Professional	2.0.10.356	2.0.10.356	07-23-2019	7/23/2019 9:38:15 PM	17:38:15	2.0.10.252	2	0	0	252156	17	252156	3998	-999999	424471	-3	412096	0	Run5Proc	2	1	2	RunList	4	OfficeLarge	8000	0	352118	0	352118	-1	352118	0	E5OfficeLargeBlockProc	n/a	n/a	n/a	n/a	n/a	n/a	n/a	n/a	n/a	n/a	n/a	n/a	4.0	1.0	4.0	Run5BlockList	5	n/a	n/a	n/a	n/a	n/a	n/a	n/a	n/a	n/a	n/a	n/a	n/a	n/a	n/a	n/a	n/a	n/a	n/a	n/a	n/a	n/a	n/a	n/a	n/a	n/a	n/a	n/a	n/a	n/a	n/a	n/a	n/a	n/a	n/a	n/a	n/a	n/a	n/a	n/a	n/a	n/a	n/a	n/a	n/a	n/a	n/a	n/a	n/a	n/a	n/a	n/a	n/a	n/a	n/a	n/a	n/a	n/a	n/a	n/a	n/a	n/a	n/a	n/a	n/a	n/a	n/a	n/a	n/a	n/a	n/a	n/a	n/a	5.0	1.0	5.0	n/a	n/a	n/a	n/a	n/a	n/a	n/a	n/a	n/a	n/a	n/a	n/a	n/a	n/a	n/a	E5_05.jpg	500	0	348620	-1	348620	0	TrialProc1	E5OfficeLargeBlockList	2500	0	346121	0	346121	0	346121	2499	c	1232	347353	93.967
97	2.5	000_R01_VB_allProc	56	1	"<?xml version=""1.0""?>\n<Clock xmlns:dt=""urn:schemas-microsoft-com:datatypes""><Description dt:dt=""string"">E-Prime Primary Realtime Clock</Description><StartTime><Timestamp dt:dt=""int"">0</Timestamp><DateUtc dt:dt=""string"">2019-07-23T21:38:14Z</DateUtc></StartTime><FrequencyChanges><FrequencyChange><Frequency dt:dt=""r8"">3020410</Frequency><Timestamp dt:dt=""r8"">2958812698330</Timestamp><Current dt:dt=""r8"">0</Current><DateUtc dt:dt=""string"">2019-07-23T21:38:14Z</DateUtc></FrequencyChange></FrequencyChanges></Clock>\n"	000_R01_VB_allProc-56-1	60.022	1.0.0.185	1	-419158361	Professional	2.0.10.356	2.0.10.356	07-23-2019	7/23/2019 9:38:15 PM	17:38:15	2.0.10.252	2	0	0	252156	17	252156	3998	-999999	424471	-3	412096	0	Run5Proc	2	1	2	RunList	4	OfficeLarge	8000	0	352118	0	352118	-1	352118	0	E5OfficeLargeBlockProc	n/a	n/a	n/a	n/a	n/a	n/a	n/a	n/a	n/a	n/a	n/a	n/a	4.0	1.0	4.0	Run5BlockList	6	n/a	n/a	n/a	n/a	n/a	n/a	n/a	n/a	n/a	n/a	n/a	n/a	n/a	n/a	n/a	n/a	n/a	n/a	n/a	n/a	n/a	n/a	n/a	n/a	n/a	n/a	n/a	n/a	n/a	n/a	n/a	n/a	n/a	n/a	n/a	n/a	n/a	n/a	n/a	n/a	n/a	n/a	n/a	n/a	n/a	n/a	n/a	n/a	n/a	n/a	n/a	n/a	n/a	n/a	n/a	n/a	n/a	n/a	n/a	n/a	n/a	n/a	n/a	n/a	n/a	n/a	n/a	n/a	n/a	n/a	n/a	n/a	6.0	1.0	6.0	n/a	n/a	n/a	n/a	n/a	n/a	n/a	n/a	n/a	n/a	n/a	n/a	n/a	n/a	n/a	E5_06.jpg	500	0	351619	0	351619	0	TrialProc1	E5OfficeLargeBlockList	2500	1	349120	1	349120	-1	349119	2500	c	866	349985	96.965
108	2.5	000_R01_VB_allProc	56	1	"<?xml version=""1.0""?>\n<Clock xmlns:dt=""urn:schemas-microsoft-com:datatypes""><Description dt:dt=""string"">E-Prime Primary Realtime Clock</Description><StartTime><Timestamp dt:dt=""int"">0</Timestamp><DateUtc dt:dt=""string"">2019-07-23T21:38:14Z</DateUtc></StartTime><FrequencyChanges><FrequencyChange><Frequency dt:dt=""r8"">3020410</Frequency><Timestamp dt:dt=""r8"">2958812698330</Timestamp><Current dt:dt=""r8"">0</Current><DateUtc dt:dt=""string"">2019-07-23T21:38:14Z</DateUtc></FrequencyChange></FrequencyChanges></Clock>\n"	000_R01_VB_allProc-56-1	60.022	1.0.0.185	1	-419158361	Professional	2.0.10.356	2.0.10.356	07-23-2019	7/23/2019 9:38:15 PM	17:38:15	2.0.10.252	2	0	0	252156	17	252156	3998	-999999	424471	-3	412096	0	Run5Proc	2	1	2	RunList	5	HighLargeED	8000	0	378109	0	378109	0	378109	0	A5HighLargeEDBlockProc	n/a	n/a	n/a	n/a	n/a	n/a	n/a	n/a	n/a	n/a	n/a	n/a	5.0	1.0	5.0	Run5BlockList	1	n/a	n/a	n/a	n/a	n/a	n/a	n/a	n/a	n/a	n/a	n/a	n/a	1.0	1.0	1.0	n/a	n/a	n/a	n/a	n/a	n/a	n/a	n/a	n/a	n/a	n/a	n/a	n/a	n/a	n/a	n/a	n/a	n/a	n/a	n/a	n/a	n/a	n/a	n/a	n/a	n/a	n/a	n/a	n/a	n/a	n/a	n/a	n/a	n/a	n/a	n/a	n/a	n/a	n/a	n/a	n/a	n/a	n/a	n/a	n/a	n/a	n/a	n/a	n/a	n/a	n/a	n/a	n/a	n/a	n/a	n/a	n/a	n/a	n/a	n/a	n/a	n/a	n/a	n/a	n/a	n/a	n/a	n/a	n/a	n/a	n/a	n/a	n/a	n/a	n/a	A5_01.jpg	500	1	362615	-1	362614	0	TrialProc1	A5HighLargeEDBlockList	2500	0	360115	0	360115	-3	360115	2499	d	1454	361569	107.961
111	2.5	000_R01_VB_allProc	56	1	"<?xml version=""1.0""?>\n<Clock xmlns:dt=""urn:schemas-microsoft-com:datatypes""><Description dt:dt=""string"">E-Prime Primary Realtime Clock</Description><StartTime><Timestamp dt:dt=""int"">0</Timestamp><DateUtc dt:dt=""string"">2019-07-23T21:38:14Z</DateUtc></StartTime><FrequencyChanges><FrequencyChange><Frequency dt:dt=""r8"">3020410</Frequency><Timestamp dt:dt=""r8"">2958812698330</Timestamp><Current dt:dt=""r8"">0</Current><DateUtc dt:dt=""string"">2019-07-23T21:38:14Z</DateUtc></FrequencyChange></FrequencyChanges></Clock>\n"	000_R01_VB_allProc-56-1	60.022	1.0.0.185	1	-419158361	Professional	2.0.10.356	2.0.10.356	07-23-2019	7/23/2019 9:38:15 PM	17:38:15	2.0.10.252	2	0	0	252156	17	252156	3998	-999999	424471	-3	412096	0	Run5Proc	2	1	2	RunList	5	HighLargeED	8000	0	378109	0	378109	0	378109	0	A5HighLargeEDBlockProc	n/a	n/a	n/a	n/a	n/a	n/a	n/a	n/a	n/a	n/a	n/a	n/a	5.0	1.0	5.0	Run5BlockList	2	n/a	n/a	n/a	n/a	n/a	n/a	n/a	n/a	n/a	n/a	n/a	n/a	2.0	1.0	2.0	n/a	n/a	n/a	n/a	n/a	n/a	n/a	n/a	n/a	n/a	n/a	n/a	n/a	n/a	n/a	n/a	n/a	n/a	n/a	n/a	n/a	n/a	n/a	n/a	n/a	n/a	n/a	n/a	n/a	n/a	n/a	n/a	n/a	n/a	n/a	n/a	n/a	n/a	n/a	n/a	n/a	n/a	n/a	n/a	n/a	n/a	n/a	n/a	n/a	n/a	n/a	n/a	n/a	n/a	n/a	n/a	n/a	n/a	n/a	n/a	n/a	n/a	n/a	n/a	n/a	n/a	n/a	n/a	n/a	n/a	n/a	n/a	n/a	n/a	n/a	A5_02.jpg	500	0	365613	-1	365613	0	TrialProc1	A5HighLargeEDBlockList	2500	0	363114	0	363114	0	363114	2499	d	1359	364473	110.96
114	2.5	000_R01_VB_allProc	56	1	"<?xml version=""1.0""?>\n<Clock xmlns:dt=""urn:schemas-microsoft-com:datatypes""><Description dt:dt=""string"">E-Prime Primary Realtime Clock</Description><StartTime><Timestamp dt:dt=""int"">0</Timestamp><DateUtc dt:dt=""string"">2019-07-23T21:38:14Z</DateUtc></StartTime><FrequencyChanges><FrequencyChange><Frequency dt:dt=""r8"">3020410</Frequency><Timestamp dt:dt=""r8"">2958812698330</Timestamp><Current dt:dt=""r8"">0</Current><DateUtc dt:dt=""string"">2019-07-23T21:38:14Z</DateUtc></FrequencyChange></FrequencyChanges></Clock>\n"	000_R01_VB_allProc-56-1	60.022	1.0.0.185	1	-419158361	Professional	2.0.10.356	2.0.10.356	07-23-2019	7/23/2019 9:38:15 PM	17:38:15	2.0.10.252	2	0	0	252156	17	252156	3998	-999999	424471	-3	412096	0	Run5Proc	2	1	2	RunList	5	HighLargeED	8000	0	378109	0	378109	0	378109	0	A5HighLargeEDBlockProc	n/a	n/a	n/a	n/a	n/a	n/a	n/a	n/a	n/a	n/a	n/a	n/a	5.0	1.0	5.0	Run5BlockList	3	n/a	n/a	n/a	n/a	n/a	n/a	n/a	n/a	n/a	n/a	n/a	n/a	3.0	1.0	3.0	n/a	n/a	n/a	n/a	n/a	n/a	n/a	n/a	n/a	n/a	n/a	n/a	n/a	n/a	n/a	n/a	n/a	n/a	n/a	n/a	n/a	n/a	n/a	n/a	n/a	n/a	n/a	n/a	n/a	n/a	n/a	n/a	n/a	n/a	n/a	n/a	n/a	n/a	n/a	n/a	n/a	n/a	n/a	n/a	n/a	n/a	n/a	n/a	n/a	n/a	n/a	n/a	n/a	n/a	n/a	n/a	n/a	n/a	n/a	n/a	n/a	n/a	n/a	n/a	n/a	n/a	n/a	n/a	n/a	n/a	n/a	n/a	n/a	n/a	n/a	A5_03.jpg	500	0	368612	-1	368612	0	TrialProc1	A5HighLargeEDBlockList	2500	0	366113	0	366113	0	366113	2499	d	1424	367537	113.959
117	2.5	000_R01_VB_allProc	56	1	"<?xml version=""1.0""?>\n<Clock xmlns:dt=""urn:schemas-microsoft-com:datatypes""><Description dt:dt=""string"">E-Prime Primary Realtime Clock</Description><StartTime><Timestamp dt:dt=""int"">0</Timestamp><DateUtc dt:dt=""string"">2019-07-23T21:38:14Z</DateUtc></StartTime><FrequencyChanges><FrequencyChange><Frequency dt:dt=""r8"">3020410</Frequency><Timestamp dt:dt=""r8"">2958812698330</Timestamp><Current dt:dt=""r8"">0</Current><DateUtc dt:dt=""string"">2019-07-23T21:38:14Z</DateUtc></FrequencyChange></FrequencyChanges></Clock>\n"	000_R01_VB_allProc-56-1	60.022	1.0.0.185	1	-419158361	Professional	2.0.10.356	2.0.10.356	07-23-2019	7/23/2019 9:38:15 PM	17:38:15	2.0.10.252	2	0	0	252156	17	252156	3998	-999999	424471	-3	412096	0	Run5Proc	2	1	2	RunList	5	HighLargeED	8000	0	378109	0	378109	0	378109	0	A5HighLargeEDBlockProc	n/a	n/a	n/a	n/a	n/a	n/a	n/a	n/a	n/a	n/a	n/a	n/a	5.0	1.0	5.0	Run5BlockList	4	n/a	n/a	n/a	n/a	n/a	n/a	n/a	n/a	n/a	n/a	n/a	n/a	4.0	1.0	4.0	n/a	n/a	n/a	n/a	n/a	n/a	n/a	n/a	n/a	n/a	n/a	n/a	n/a	n/a	n/a	n/a	n/a	n/a	n/a	n/a	n/a	n/a	n/a	n/a	n/a	n/a	n/a	n/a	n/a	n/a	n/a	n/a	n/a	n/a	n/a	n/a	n/a	n/a	n/a	n/a	n/a	n/a	n/a	n/a	n/a	n/a	n/a	n/a	n/a	n/a	n/a	n/a	n/a	n/a	n/a	n/a	n/a	n/a	n/a	n/a	n/a	n/a	n/a	n/a	n/a	n/a	n/a	n/a	n/a	n/a	n/a	n/a	n/a	n/a	n/a	A5_04.jpg	500	0	371611	-1	371611	0	TrialProc1	A5HighLargeEDBlockList	2500	0	369112	0	369112	0	369112	2499	d	992	370104	116.958
120	2.5	000_R01_VB_allProc	56	1	"<?xml version=""1.0""?>\n<Clock xmlns:dt=""urn:schemas-microsoft-com:datatypes""><Description dt:dt=""string"">E-Prime Primary Realtime Clock</Description><StartTime><Timestamp dt:dt=""int"">0</Timestamp><DateUtc dt:dt=""string"">2019-07-23T21:38:14Z</DateUtc></StartTime><FrequencyChanges><FrequencyChange><Frequency dt:dt=""r8"">3020410</Frequency><Timestamp dt:dt=""r8"">2958812698330</Timestamp><Current dt:dt=""r8"">0</Current><DateUtc dt:dt=""string"">2019-07-23T21:38:14Z</DateUtc></FrequencyChange></FrequencyChanges></Clock>\n"	000_R01_VB_allProc-56-1	60.022	1.0.0.185	1	-419158361	Professional	2.0.10.356	2.0.10.356	07-23-2019	7/23/2019 9:38:15 PM	17:38:15	2.0.10.252	2	0	0	252156	17	252156	3998	-999999	424471	-3	412096	0	Run5Proc	2	1	2	RunList	5	HighLargeED	8000	0	378109	0	378109	0	378109	0	A5HighLargeEDBlockProc	n/a	n/a	n/a	n/a	n/a	n/a	n/a	n/a	n/a	n/a	n/a	n/a	5.0	1.0	5.0	Run5BlockList	5	n/a	n/a	n/a	n/a	n/a	n/a	n/a	n/a	n/a	n/a	n/a	n/a	5.0	1.0	5.0	n/a	n/a	n/a	n/a	n/a	n/a	n/a	n/a	n/a	n/a	n/a	n/a	n/a	n/a	n/a	n/a	n/a	n/a	n/a	n/a	n/a	n/a	n/a	n/a	n/a	n/a	n/a	n/a	n/a	n/a	n/a	n/a	n/a	n/a	n/a	n/a	n/a	n/a	n/a	n/a	n/a	n/a	n/a	n/a	n/a	n/a	n/a	n/a	n/a	n/a	n/a	n/a	n/a	n/a	n/a	n/a	n/a	n/a	n/a	n/a	n/a	n/a	n/a	n/a	n/a	n/a	n/a	n/a	n/a	n/a	n/a	n/a	n/a	n/a	n/a	A5_05.jpg	500	0	374610	-1	374610	0	TrialProc1	A5HighLargeEDBlockList	2500	0	372111	0	372111	0	372111	2499	d	1425	373536	119.957
123	2.5	000_R01_VB_allProc	56	1	"<?xml version=""1.0""?>\n<Clock xmlns:dt=""urn:schemas-microsoft-com:datatypes""><Description dt:dt=""string"">E-Prime Primary Realtime Clock</Description><StartTime><Timestamp dt:dt=""int"">0</Timestamp><DateUtc dt:dt=""string"">2019-07-23T21:38:14Z</DateUtc></StartTime><FrequencyChanges><FrequencyChange><Frequency dt:dt=""r8"">3020410</Frequency><Timestamp dt:dt=""r8"">2958812698330</Timestamp><Current dt:dt=""r8"">0</Current><DateUtc dt:dt=""string"">2019-07-23T21:38:14Z</DateUtc></FrequencyChange></FrequencyChanges></Clock>\n"	000_R01_VB_allProc-56-1	60.022	1.0.0.185	1	-419158361	Professional	2.0.10.356	2.0.10.356	07-23-2019	7/23/2019 9:38:15 PM	17:38:15	2.0.10.252	2	0	0	252156	17	252156	3998	-999999	424471	-3	412096	0	Run5Proc	2	1	2	RunList	5	HighLargeED	8000	0	378109	0	378109	0	378109	0	A5HighLargeEDBlockProc	n/a	n/a	n/a	n/a	n/a	n/a	n/a	n/a	n/a	n/a	n/a	n/a	5.0	1.0	5.0	Run5BlockList	6	n/a	n/a	n/a	n/a	n/a	n/a	n/a	n/a	n/a	n/a	n/a	n/a	6.0	1.0	6.0	n/a	n/a	n/a	n/a	n/a	n/a	n/a	n/a	n/a	n/a	n/a	n/a	n/a	n/a	n/a	n/a	n/a	n/a	n/a	n/a	n/a	n/a	n/a	n/a	n/a	n/a	n/a	n/a	n/a	n/a	n/a	n/a	n/a	n/a	n/a	n/a	n/a	n/a	n/a	n/a	n/a	n/a	n/a	n/a	n/a	n/a	n/a	n/a	n/a	n/a	n/a	n/a	n/a	n/a	n/a	n/a	n/a	n/a	n/a	n/a	n/a	n/a	n/a	n/a	n/a	n/a	n/a	n/a	n/a	n/a	n/a	n/a	n/a	n/a	n/a	A5_06.jpg	500	0	377609	-1	377609	0	TrialProc1	A5HighLargeEDBlockList	2500	0	375110	0	375110	0	375110	2499	d	1866	376976	122.956
134	2.5	000_R01_VB_allProc	56	1	"<?xml version=""1.0""?>\n<Clock xmlns:dt=""urn:schemas-microsoft-com:datatypes""><Description dt:dt=""string"">E-Prime Primary Realtime Clock</Description><StartTime><Timestamp dt:dt=""int"">0</Timestamp><DateUtc dt:dt=""string"">2019-07-23T21:38:14Z</DateUtc></StartTime><FrequencyChanges><FrequencyChange><Frequency dt:dt=""r8"">3020410</Frequency><Timestamp dt:dt=""r8"">2958812698330</Timestamp><Current dt:dt=""r8"">0</Current><DateUtc dt:dt=""string"">2019-07-23T21:38:14Z</DateUtc></FrequencyChange></FrequencyChanges></Clock>\n"	000_R01_VB_allProc-56-1	60.022	1.0.0.185	1	-419158361	Professional	2.0.10.356	2.0.10.356	07-23-2019	7/23/2019 9:38:15 PM	17:38:15	2.0.10.252	2	0	0	252156	17	252156	3998	-999999	424471	-3	412096	0	Run5Proc	2	1	2	RunList	6	LowSmallED	8000	0	404099	0	404099	0	404099	0	D5LowSmallEDBlockProc	n/a	n/a	n/a	n/a	n/a	n/a	n/a	n/a	n/a	n/a	n/a	n/a	6.0	1.0	6.0	Run5BlockList	1	n/a	n/a	n/a	n/a	n/a	n/a	n/a	n/a	n/a	n/a	n/a	n/a	n/a	n/a	n/a	n/a	n/a	n/a	n/a	n/a	n/a	n/a	n/a	n/a	n/a	n/a	n/a	n/a	n/a	n/a	n/a	n/a	n/a	n/a	n/a	n/a	n/a	n/a	n/a	n/a	n/a	n/a	n/a	n/a	n/a	n/a	n/a	n/a	n/a	n/a	n/a	n/a	n/a	n/a	n/a	n/a	n/a	1.0	1.0	1.0	n/a	n/a	n/a	n/a	n/a	n/a	n/a	n/a	n/a	n/a	n/a	n/a	n/a	n/a	n/a	n/a	n/a	n/a	n/a	n/a	n/a	n/a	n/a	n/a	n/a	n/a	n/a	n/a	n/a	n/a	D5_01.jpg	500	0	388605	-1	388605	0	TrialProc1	D5LowSmallEDBlockList	2500	0	386106	0	386106	-3	386106	2499	c	1598	387704	133.952
137	2.5	000_R01_VB_allProc	56	1	"<?xml version=""1.0""?>\n<Clock xmlns:dt=""urn:schemas-microsoft-com:datatypes""><Description dt:dt=""string"">E-Prime Primary Realtime Clock</Description><StartTime><Timestamp dt:dt=""int"">0</Timestamp><DateUtc dt:dt=""string"">2019-07-23T21:38:14Z</DateUtc></StartTime><FrequencyChanges><FrequencyChange><Frequency dt:dt=""r8"">3020410</Frequency><Timestamp dt:dt=""r8"">2958812698330</Timestamp><Current dt:dt=""r8"">0</Current><DateUtc dt:dt=""string"">2019-07-23T21:38:14Z</DateUtc></FrequencyChange></FrequencyChanges></Clock>\n"	000_R01_VB_allProc-56-1	60.022	1.0.0.185	1	-419158361	Professional	2.0.10.356	2.0.10.356	07-23-2019	7/23/2019 9:38:15 PM	17:38:15	2.0.10.252	2	0	0	252156	17	252156	3998	-999999	424471	-3	412096	0	Run5Proc	2	1	2	RunList	6	LowSmallED	8000	0	404099	0	404099	0	404099	0	D5LowSmallEDBlockProc	n/a	n/a	n/a	n/a	n/a	n/a	n/a	n/a	n/a	n/a	n/a	n/a	6.0	1.0	6.0	Run5BlockList	2	n/a	n/a	n/a	n/a	n/a	n/a	n/a	n/a	n/a	n/a	n/a	n/a	n/a	n/a	n/a	n/a	n/a	n/a	n/a	n/a	n/a	n/a	n/a	n/a	n/a	n/a	n/a	n/a	n/a	n/a	n/a	n/a	n/a	n/a	n/a	n/a	n/a	n/a	n/a	n/a	n/a	n/a	n/a	n/a	n/a	n/a	n/a	n/a	n/a	n/a	n/a	n/a	n/a	n/a	n/a	n/a	n/a	2.0	1.0	2.0	n/a	n/a	n/a	n/a	n/a	n/a	n/a	n/a	n/a	n/a	n/a	n/a	n/a	n/a	n/a	n/a	n/a	n/a	n/a	n/a	n/a	n/a	n/a	n/a	n/a	n/a	n/a	n/a	n/a	n/a	D5_02.jpg	500	0	391604	-1	391604	0	TrialProc1	D5LowSmallEDBlockList	2500	0	389105	0	389105	0	389105	2499	c	1327	390432	136.951
140	2.5	000_R01_VB_allProc	56	1	"<?xml version=""1.0""?>\n<Clock xmlns:dt=""urn:schemas-microsoft-com:datatypes""><Description dt:dt=""string"">E-Prime Primary Realtime Clock</Description><StartTime><Timestamp dt:dt=""int"">0</Timestamp><DateUtc dt:dt=""string"">2019-07-23T21:38:14Z</DateUtc></StartTime><FrequencyChanges><FrequencyChange><Frequency dt:dt=""r8"">3020410</Frequency><Timestamp dt:dt=""r8"">2958812698330</Timestamp><Current dt:dt=""r8"">0</Current><DateUtc dt:dt=""string"">2019-07-23T21:38:14Z</DateUtc></FrequencyChange></FrequencyChanges></Clock>\n"	000_R01_VB_allProc-56-1	60.022	1.0.0.185	1	-419158361	Professional	2.0.10.356	2.0.10.356	07-23-2019	7/23/2019 9:38:15 PM	17:38:15	2.0.10.252	2	0	0	252156	17	252156	3998	-999999	424471	-3	412096	0	Run5Proc	2	1	2	RunList	6	LowSmallED	8000	0	404099	0	404099	0	404099	0	D5LowSmallEDBlockProc	n/a	n/a	n/a	n/a	n/a	n/a	n/a	n/a	n/a	n/a	n/a	n/a	6.0	1.0	6.0	Run5BlockList	3	n/a	n/a	n/a	n/a	n/a	n/a	n/a	n/a	n/a	n/a	n/a	n/a	n/a	n/a	n/a	n/a	n/a	n/a	n/a	n/a	n/a	n/a	n/a	n/a	n/a	n/a	n/a	n/a	n/a	n/a	n/a	n/a	n/a	n/a	n/a	n/a	n/a	n/a	n/a	n/a	n/a	n/a	n/a	n/a	n/a	n/a	n/a	n/a	n/a	n/a	n/a	n/a	n/a	n/a	n/a	n/a	n/a	3.0	1.0	3.0	n/a	n/a	n/a	n/a	n/a	n/a	n/a	n/a	n/a	n/a	n/a	n/a	n/a	n/a	n/a	n/a	n/a	n/a	n/a	n/a	n/a	n/a	n/a	n/a	n/a	n/a	n/a	n/a	n/a	n/a	D5_03.jpg	500	0	394603	0	394603	0	TrialProc1	D5LowSmallEDBlockList	2500	1	392104	1	392104	-1	392103	2500	d	1465	393568	139.949
143	2.5	000_R01_VB_allProc	56	1	"<?xml version=""1.0""?>\n<Clock xmlns:dt=""urn:schemas-microsoft-com:datatypes""><Description dt:dt=""string"">E-Prime Primary Realtime Clock</Description><StartTime><Timestamp dt:dt=""int"">0</Timestamp><DateUtc dt:dt=""string"">2019-07-23T21:38:14Z</DateUtc></StartTime><FrequencyChanges><FrequencyChange><Frequency dt:dt=""r8"">3020410</Frequency><Timestamp dt:dt=""r8"">2958812698330</Timestamp><Current dt:dt=""r8"">0</Current><DateUtc dt:dt=""string"">2019-07-23T21:38:14Z</DateUtc></FrequencyChange></FrequencyChanges></Clock>\n"	000_R01_VB_allProc-56-1	60.022	1.0.0.185	1	-419158361	Professional	2.0.10.356	2.0.10.356	07-23-2019	7/23/2019 9:38:15 PM	17:38:15	2.0.10.252	2	0	0	252156	17	252156	3998	-999999	424471	-3	412096	0	Run5Proc	2	1	2	RunList	6	LowSmallED	8000	0	404099	0	404099	0	404099	0	D5LowSmallEDBlockProc	n/a	n/a	n/a	n/a	n/a	n/a	n/a	n/a	n/a	n/a	n/a	n/a	6.0	1.0	6.0	Run5BlockList	4	n/a	n/a	n/a	n/a	n/a	n/a	n/a	n/a	n/a	n/a	n/a	n/a	n/a	n/a	n/a	n/a	n/a	n/a	n/a	n/a	n/a	n/a	n/a	n/a	n/a	n/a	n/a	n/a	n/a	n/a	n/a	n/a	n/a	n/a	n/a	n/a	n/a	n/a	n/a	n/a	n/a	n/a	n/a	n/a	n/a	n/a	n/a	n/a	n/a	n/a	n/a	n/a	n/a	n/a	n/a	n/a	n/a	4.0	1.0	4.0	n/a	n/a	n/a	n/a	n/a	n/a	n/a	n/a	n/a	n/a	n/a	n/a	n/a	n/a	n/a	n/a	n/a	n/a	n/a	n/a	n/a	n/a	n/a	n/a	n/a	n/a	n/a	n/a	n/a	n/a	D5_04.jpg	500	0	397601	-1	397601	0	TrialProc1	D5LowSmallEDBlockList	2500	0	395102	0	395102	-1	395102	2499	d	1290	396392	142.948
146	2.5	000_R01_VB_allProc	56	1	"<?xml version=""1.0""?>\n<Clock xmlns:dt=""urn:schemas-microsoft-com:datatypes""><Description dt:dt=""string"">E-Prime Primary Realtime Clock</Description><StartTime><Timestamp dt:dt=""int"">0</Timestamp><DateUtc dt:dt=""string"">2019-07-23T21:38:14Z</DateUtc></StartTime><FrequencyChanges><FrequencyChange><Frequency dt:dt=""r8"">3020410</Frequency><Timestamp dt:dt=""r8"">2958812698330</Timestamp><Current dt:dt=""r8"">0</Current><DateUtc dt:dt=""string"">2019-07-23T21:38:14Z</DateUtc></FrequencyChange></FrequencyChanges></Clock>\n"	000_R01_VB_allProc-56-1	60.022	1.0.0.185	1	-419158361	Professional	2.0.10.356	2.0.10.356	07-23-2019	7/23/2019 9:38:15 PM	17:38:15	2.0.10.252	2	0	0	252156	17	252156	3998	-999999	424471	-3	412096	0	Run5Proc	2	1	2	RunList	6	LowSmallED	8000	0	404099	0	404099	0	404099	0	D5LowSmallEDBlockProc	n/a	n/a	n/a	n/a	n/a	n/a	n/a	n/a	n/a	n/a	n/a	n/a	6.0	1.0	6.0	Run5BlockList	5	n/a	n/a	n/a	n/a	n/a	n/a	n/a	n/a	n/a	n/a	n/a	n/a	n/a	n/a	n/a	n/a	n/a	n/a	n/a	n/a	n/a	n/a	n/a	n/a	n/a	n/a	n/a	n/a	n/a	n/a	n/a	n/a	n/a	n/a	n/a	n/a	n/a	n/a	n/a	n/a	n/a	n/a	n/a	n/a	n/a	n/a	n/a	n/a	n/a	n/a	n/a	n/a	n/a	n/a	n/a	n/a	n/a	5.0	1.0	5.0	n/a	n/a	n/a	n/a	n/a	n/a	n/a	n/a	n/a	n/a	n/a	n/a	n/a	n/a	n/a	n/a	n/a	n/a	n/a	n/a	n/a	n/a	n/a	n/a	n/a	n/a	n/a	n/a	n/a	n/a	D5_05.jpg	500	0	400600	-1	400600	0	TrialProc1	D5LowSmallEDBlockList	2500	0	398101	0	398101	0	398101	2499	n/a	0	0	145.947
149	2.5	000_R01_VB_allProc	56	1	"<?xml version=""1.0""?>\n<Clock xmlns:dt=""urn:schemas-microsoft-com:datatypes""><Description dt:dt=""string"">E-Prime Primary Realtime Clock</Description><StartTime><Timestamp dt:dt=""int"">0</Timestamp><DateUtc dt:dt=""string"">2019-07-23T21:38:14Z</DateUtc></StartTime><FrequencyChanges><FrequencyChange><Frequency dt:dt=""r8"">3020410</Frequency><Timestamp dt:dt=""r8"">2958812698330</Timestamp><Current dt:dt=""r8"">0</Current><DateUtc dt:dt=""string"">2019-07-23T21:38:14Z</DateUtc></FrequencyChange></FrequencyChanges></Clock>\n"	000_R01_VB_allProc-56-1	60.022	1.0.0.185	1	-419158361	Professional	2.0.10.356	2.0.10.356	07-23-2019	7/23/2019 9:38:15 PM	17:38:15	2.0.10.252	2	0	0	252156	17	252156	3998	-999999	424471	-3	412096	0	Run5Proc	2	1	2	RunList	6	LowSmallED	8000	0	404099	0	404099	0	404099	0	D5LowSmallEDBlockProc	n/a	n/a	n/a	n/a	n/a	n/a	n/a	n/a	n/a	n/a	n/a	n/a	6.0	1.0	6.0	Run5BlockList	6	n/a	n/a	n/a	n/a	n/a	n/a	n/a	n/a	n/a	n/a	n/a	n/a	n/a	n/a	n/a	n/a	n/a	n/a	n/a	n/a	n/a	n/a	n/a	n/a	n/a	n/a	n/a	n/a	n/a	n/a	n/a	n/a	n/a	n/a	n/a	n/a	n/a	n/a	n/a	n/a	n/a	n/a	n/a	n/a	n/a	n/a	n/a	n/a	n/a	n/a	n/a	n/a	n/a	n/a	n/a	n/a	n/a	6.0	1.0	6.0	n/a	n/a	n/a	n/a	n/a	n/a	n/a	n/a	n/a	n/a	n/a	n/a	n/a	n/a	n/a	n/a	n/a	n/a	n/a	n/a	n/a	n/a	n/a	n/a	n/a	n/a	n/a	n/a	n/a	n/a	D5_06.jpg	500	0	403599	-1	403599	0	TrialProc1	D5LowSmallEDBlockList	2500	0	401100	0	401100	0	401100	2499	d	1220	402320	148.946
