onset	duration	experiment_name	sub	ses	clock_information	datafile_basename	display_refreshrate	experiment_version	group	randomseed	runtime_capabilities	runtime_version	runtimeversionexpected	session_date	session_start_date_time_utc	session_time	studio_version	block	fixation2trs_durationerror	fixation2trs_offsetdelay	fixation2trs_offsettime	fixation2trs_onsetdelay	fixation2trs_onsettime	fixation2trs_onsettoonsettime	goodwork_durationerror	goodwork_finishtime	goodwork_onsetdelay	goodwork_onsettime	goodwork_onsettoonsettime	procedure_block	runlist	runlist_cycle	runlist_sample	running_block	trial	condition	interblockinterval_duration	interblockinterval_durationerror	interblockinterval_finishtime	interblockinterval_offsetdelay	interblockinterval_offsettime	interblockinterval_onsetdelay	interblockinterval_onsettime	interblockinterval_onsettoonsettime	procedure_trial	run1blocklist	run1blocklist_cycle	run1blocklist_sample	run3blocklist	run3blocklist_cycle	run3blocklist_sample	run4blocklist	run4blocklist_cycle	run4blocklist_sample	running_trial	subtrial	a1highlargeedblocklist	a1highlargeedblocklist_cycle	a1highlargeedblocklist_sample	a3highlargeedblocklist	a3highlargeedblocklist_cycle	a3highlargeedblocklist_sample	a4highlargeedblocklist	a4highlargeedblocklist_cycle	a4highlargeedblocklist_sample	b1highsmalledblocklist	b1highsmalledblocklist_cycle	b1highsmalledblocklist_sample	b3highsmalledblocklist	b3highsmalledblocklist_cycle	b3highsmalledblocklist_sample	b4highsmalledblocklist	b4highsmalledblocklist_cycle	b4highsmalledblocklist_sample	c1lowlargeedblocklist	c1lowlargeedblocklist_cycle	c1lowlargeedblocklist_sample	c3lowlargeedblocklist	c3lowlargeedblocklist_cycle	c3lowlargeedblocklist_sample	c4lowlargeedblocklist	c4lowlargeedblocklist_cycle	c4lowlargeedblocklist_sample	d1lowsmalledblocklist	d1lowsmalledblocklist_cycle	d1lowsmalledblocklist_sample	d3lowsmalledblocklist	d3lowsmalledblocklist_cycle	d3lowsmalledblocklist_sample	d4lowsmalledblocklist	d4lowsmalledblocklist_cycle	d4lowsmalledblocklist_sample	e1officelargeblocklist	e1officelargeblocklist_cycle	e1officelargeblocklist_sample	e3officelargeblocklist	e3officelargeblocklist_cycle	e3officelargeblocklist_sample	e4officelargeblocklist	e4officelargeblocklist_cycle	e4officelargeblocklist_sample	f1officesmallblocklist	f1officesmallblocklist_cycle	f1officesmallblocklist_sample	f3officesmallblocklist	f3officesmallblocklist_cycle	f3officesmallblocklist_sample	f4officesmallblocklist	f4officesmallblocklist_cycle	f4officesmallblocklist_sample	filename	isi_duration	isi_durationerror	isi_finishtime	isi_onsetdelay	isi_onsettime	isi_onsettoonsettime	procedure_subtrial	running_subtrial	stimslide_duration	stimslide_durationerror	stimslide_finishtime	stimslide_offsetdelay	stimslide_offsettime	stimslide_onsetdelay	stimslide_onsettime	stimslide_onsettoonsettime	stimslide_resp	stimslide_rt	stimslide_rttime	onset_unrounded
4	2.5	000_R01_VA_allProc	112	1	"<?xml version=""1.0""?>\n<Clock xmlns:dt=""urn:schemas-microsoft-com:datatypes""><Description dt:dt=""string"">E-Prime Primary Realtime Clock</Description><StartTime><Timestamp dt:dt=""int"">0</Timestamp><DateUtc dt:dt=""string"">2021-08-11T14:24:16Z</DateUtc></StartTime><FrequencyChanges><FrequencyChange><Frequency dt:dt=""r8"">3020390</Frequency><Timestamp dt:dt=""r8"">4935492972584</Timestamp><Current dt:dt=""r8"">0</Current><DateUtc dt:dt=""string"">2021-08-11T14:24:16Z</DateUtc></FrequencyChange></FrequencyChanges></Clock>\n"	000_R01_VA_allProc-112-1	60.001	1.0.0.229	1	576146689	Professional	2.0.10.356	2.0.10.356	08-11-2021	8/11/2021 2:24:16 PM	10:24:16	2.0.10.252	2	0.0	0.0	286495.0	22.0	286495.0	4000.0	-999999.0	449642.0	0.0	446492.0	0.0	Run3Proc	2	1	2	RunList	1.0	LowSmallED	8000.0	0.0	308495.0	0.0	308495.0	0.0	308495.0	0.0	D3LowSmallEDBlockProc	n/a	n/a	n/a	1.0	1.0	1.0	n/a	n/a	n/a	Run3BlockList	1.0	n/a	n/a	n/a	n/a	n/a	n/a	n/a	n/a	n/a	n/a	n/a	n/a	n/a	n/a	n/a	n/a	n/a	n/a	n/a	n/a	n/a	n/a	n/a	n/a	n/a	n/a	n/a	n/a	n/a	n/a	1.0	1.0	1.0	n/a	n/a	n/a	n/a	n/a	n/a	n/a	n/a	n/a	n/a	n/a	n/a	n/a	n/a	n/a	n/a	n/a	n/a	n/a	n/a	n/a	D3_01.jpg	500.0	0.0	292995.0	0.0	292995.0	0.0	TrialProc1	D3LowSmallEDBlockList	2500.0	0.0	290495.0	0.0	290495.0	0.0	290495.0	2500.0	n/a	0.0	0.0	4.0
7	2.5	000_R01_VA_allProc	112	1	"<?xml version=""1.0""?>\n<Clock xmlns:dt=""urn:schemas-microsoft-com:datatypes""><Description dt:dt=""string"">E-Prime Primary Realtime Clock</Description><StartTime><Timestamp dt:dt=""int"">0</Timestamp><DateUtc dt:dt=""string"">2021-08-11T14:24:16Z</DateUtc></StartTime><FrequencyChanges><FrequencyChange><Frequency dt:dt=""r8"">3020390</Frequency><Timestamp dt:dt=""r8"">4935492972584</Timestamp><Current dt:dt=""r8"">0</Current><DateUtc dt:dt=""string"">2021-08-11T14:24:16Z</DateUtc></FrequencyChange></FrequencyChanges></Clock>\n"	000_R01_VA_allProc-112-1	60.001	1.0.0.229	1	576146689	Professional	2.0.10.356	2.0.10.356	08-11-2021	8/11/2021 2:24:16 PM	10:24:16	2.0.10.252	2	0.0	0.0	286495.0	22.0	286495.0	4000.0	-999999.0	449642.0	0.0	446492.0	0.0	Run3Proc	2	1	2	RunList	1.0	LowSmallED	8000.0	0.0	308495.0	0.0	308495.0	0.0	308495.0	0.0	D3LowSmallEDBlockProc	n/a	n/a	n/a	1.0	1.0	1.0	n/a	n/a	n/a	Run3BlockList	2.0	n/a	n/a	n/a	n/a	n/a	n/a	n/a	n/a	n/a	n/a	n/a	n/a	n/a	n/a	n/a	n/a	n/a	n/a	n/a	n/a	n/a	n/a	n/a	n/a	n/a	n/a	n/a	n/a	n/a	n/a	2.0	1.0	2.0	n/a	n/a	n/a	n/a	n/a	n/a	n/a	n/a	n/a	n/a	n/a	n/a	n/a	n/a	n/a	n/a	n/a	n/a	n/a	n/a	n/a	D3_02.jpg	500.0	0.0	295995.0	0.0	295995.0	0.0	TrialProc1	D3LowSmallEDBlockList	2500.0	0.0	293495.0	0.0	293495.0	0.0	293495.0	2500.0	d	709.0	294204.0	7.0
10	2.5	000_R01_VA_allProc	112	1	"<?xml version=""1.0""?>\n<Clock xmlns:dt=""urn:schemas-microsoft-com:datatypes""><Description dt:dt=""string"">E-Prime Primary Realtime Clock</Description><StartTime><Timestamp dt:dt=""int"">0</Timestamp><DateUtc dt:dt=""string"">2021-08-11T14:24:16Z</DateUtc></StartTime><FrequencyChanges><FrequencyChange><Frequency dt:dt=""r8"">3020390</Frequency><Timestamp dt:dt=""r8"">4935492972584</Timestamp><Current dt:dt=""r8"">0</Current><DateUtc dt:dt=""string"">2021-08-11T14:24:16Z</DateUtc></FrequencyChange></FrequencyChanges></Clock>\n"	000_R01_VA_allProc-112-1	60.001	1.0.0.229	1	576146689	Professional	2.0.10.356	2.0.10.356	08-11-2021	8/11/2021 2:24:16 PM	10:24:16	2.0.10.252	2	0.0	0.0	286495.0	22.0	286495.0	4000.0	-999999.0	449642.0	0.0	446492.0	0.0	Run3Proc	2	1	2	RunList	1.0	LowSmallED	8000.0	0.0	308495.0	0.0	308495.0	0.0	308495.0	0.0	D3LowSmallEDBlockProc	n/a	n/a	n/a	1.0	1.0	1.0	n/a	n/a	n/a	Run3BlockList	3.0	n/a	n/a	n/a	n/a	n/a	n/a	n/a	n/a	n/a	n/a	n/a	n/a	n/a	n/a	n/a	n/a	n/a	n/a	n/a	n/a	n/a	n/a	n/a	n/a	n/a	n/a	n/a	n/a	n/a	n/a	3.0	1.0	3.0	n/a	n/a	n/a	n/a	n/a	n/a	n/a	n/a	n/a	n/a	n/a	n/a	n/a	n/a	n/a	n/a	n/a	n/a	n/a	n/a	n/a	D3_03.jpg	500.0	0.0	298995.0	0.0	298995.0	0.0	TrialProc1	D3LowSmallEDBlockList	2500.0	0.0	296495.0	0.0	296495.0	0.0	296495.0	2500.0	d	613.0	297108.0	10.0
13	2.5	000_R01_VA_allProc	112	1	"<?xml version=""1.0""?>\n<Clock xmlns:dt=""urn:schemas-microsoft-com:datatypes""><Description dt:dt=""string"">E-Prime Primary Realtime Clock</Description><StartTime><Timestamp dt:dt=""int"">0</Timestamp><DateUtc dt:dt=""string"">2021-08-11T14:24:16Z</DateUtc></StartTime><FrequencyChanges><FrequencyChange><Frequency dt:dt=""r8"">3020390</Frequency><Timestamp dt:dt=""r8"">4935492972584</Timestamp><Current dt:dt=""r8"">0</Current><DateUtc dt:dt=""string"">2021-08-11T14:24:16Z</DateUtc></FrequencyChange></FrequencyChanges></Clock>\n"	000_R01_VA_allProc-112-1	60.001	1.0.0.229	1	576146689	Professional	2.0.10.356	2.0.10.356	08-11-2021	8/11/2021 2:24:16 PM	10:24:16	2.0.10.252	2	0.0	0.0	286495.0	22.0	286495.0	4000.0	-999999.0	449642.0	0.0	446492.0	0.0	Run3Proc	2	1	2	RunList	1.0	LowSmallED	8000.0	0.0	308495.0	0.0	308495.0	0.0	308495.0	0.0	D3LowSmallEDBlockProc	n/a	n/a	n/a	1.0	1.0	1.0	n/a	n/a	n/a	Run3BlockList	4.0	n/a	n/a	n/a	n/a	n/a	n/a	n/a	n/a	n/a	n/a	n/a	n/a	n/a	n/a	n/a	n/a	n/a	n/a	n/a	n/a	n/a	n/a	n/a	n/a	n/a	n/a	n/a	n/a	n/a	n/a	4.0	1.0	4.0	n/a	n/a	n/a	n/a	n/a	n/a	n/a	n/a	n/a	n/a	n/a	n/a	n/a	n/a	n/a	n/a	n/a	n/a	n/a	n/a	n/a	D3_04.jpg	500.0	0.0	301995.0	0.0	301995.0	0.0	TrialProc1	D3LowSmallEDBlockList	2500.0	0.0	299495.0	0.0	299495.0	0.0	299495.0	2500.0	d	1221.0	300716.0	13.0
16	2.5	000_R01_VA_allProc	112	1	"<?xml version=""1.0""?>\n<Clock xmlns:dt=""urn:schemas-microsoft-com:datatypes""><Description dt:dt=""string"">E-Prime Primary Realtime Clock</Description><StartTime><Timestamp dt:dt=""int"">0</Timestamp><DateUtc dt:dt=""string"">2021-08-11T14:24:16Z</DateUtc></StartTime><FrequencyChanges><FrequencyChange><Frequency dt:dt=""r8"">3020390</Frequency><Timestamp dt:dt=""r8"">4935492972584</Timestamp><Current dt:dt=""r8"">0</Current><DateUtc dt:dt=""string"">2021-08-11T14:24:16Z</DateUtc></FrequencyChange></FrequencyChanges></Clock>\n"	000_R01_VA_allProc-112-1	60.001	1.0.0.229	1	576146689	Professional	2.0.10.356	2.0.10.356	08-11-2021	8/11/2021 2:24:16 PM	10:24:16	2.0.10.252	2	0.0	0.0	286495.0	22.0	286495.0	4000.0	-999999.0	449642.0	0.0	446492.0	0.0	Run3Proc	2	1	2	RunList	1.0	LowSmallED	8000.0	0.0	308495.0	0.0	308495.0	0.0	308495.0	0.0	D3LowSmallEDBlockProc	n/a	n/a	n/a	1.0	1.0	1.0	n/a	n/a	n/a	Run3BlockList	5.0	n/a	n/a	n/a	n/a	n/a	n/a	n/a	n/a	n/a	n/a	n/a	n/a	n/a	n/a	n/a	n/a	n/a	n/a	n/a	n/a	n/a	n/a	n/a	n/a	n/a	n/a	n/a	n/a	n/a	n/a	5.0	1.0	5.0	n/a	n/a	n/a	n/a	n/a	n/a	n/a	n/a	n/a	n/a	n/a	n/a	n/a	n/a	n/a	n/a	n/a	n/a	n/a	n/a	n/a	D3_05.jpg	500.0	0.0	304995.0	0.0	304995.0	0.0	TrialProc1	D3LowSmallEDBlockList	2500.0	0.0	302495.0	0.0	302495.0	0.0	302495.0	2500.0	c	829.0	303324.0	16.0
19	2.5	000_R01_VA_allProc	112	1	"<?xml version=""1.0""?>\n<Clock xmlns:dt=""urn:schemas-microsoft-com:datatypes""><Description dt:dt=""string"">E-Prime Primary Realtime Clock</Description><StartTime><Timestamp dt:dt=""int"">0</Timestamp><DateUtc dt:dt=""string"">2021-08-11T14:24:16Z</DateUtc></StartTime><FrequencyChanges><FrequencyChange><Frequency dt:dt=""r8"">3020390</Frequency><Timestamp dt:dt=""r8"">4935492972584</Timestamp><Current dt:dt=""r8"">0</Current><DateUtc dt:dt=""string"">2021-08-11T14:24:16Z</DateUtc></FrequencyChange></FrequencyChanges></Clock>\n"	000_R01_VA_allProc-112-1	60.001	1.0.0.229	1	576146689	Professional	2.0.10.356	2.0.10.356	08-11-2021	8/11/2021 2:24:16 PM	10:24:16	2.0.10.252	2	0.0	0.0	286495.0	22.0	286495.0	4000.0	-999999.0	449642.0	0.0	446492.0	0.0	Run3Proc	2	1	2	RunList	1.0	LowSmallED	8000.0	0.0	308495.0	0.0	308495.0	0.0	308495.0	0.0	D3LowSmallEDBlockProc	n/a	n/a	n/a	1.0	1.0	1.0	n/a	n/a	n/a	Run3BlockList	6.0	n/a	n/a	n/a	n/a	n/a	n/a	n/a	n/a	n/a	n/a	n/a	n/a	n/a	n/a	n/a	n/a	n/a	n/a	n/a	n/a	n/a	n/a	n/a	n/a	n/a	n/a	n/a	n/a	n/a	n/a	6.0	1.0	6.0	n/a	n/a	n/a	n/a	n/a	n/a	n/a	n/a	n/a	n/a	n/a	n/a	n/a	n/a	n/a	n/a	n/a	n/a	n/a	n/a	n/a	D3_06.jpg	500.0	0.0	307995.0	0.0	307995.0	0.0	TrialProc1	D3LowSmallEDBlockList	2500.0	0.0	305495.0	0.0	305495.0	0.0	305495.0	2500.0	d	717.0	306212.0	19.0
30	2.5	000_R01_VA_allProc	112	1	"<?xml version=""1.0""?>\n<Clock xmlns:dt=""urn:schemas-microsoft-com:datatypes""><Description dt:dt=""string"">E-Prime Primary Realtime Clock</Description><StartTime><Timestamp dt:dt=""int"">0</Timestamp><DateUtc dt:dt=""string"">2021-08-11T14:24:16Z</DateUtc></StartTime><FrequencyChanges><FrequencyChange><Frequency dt:dt=""r8"">3020390</Frequency><Timestamp dt:dt=""r8"">4935492972584</Timestamp><Current dt:dt=""r8"">0</Current><DateUtc dt:dt=""string"">2021-08-11T14:24:16Z</DateUtc></FrequencyChange></FrequencyChanges></Clock>\n"	000_R01_VA_allProc-112-1	60.001	1.0.0.229	1	576146689	Professional	2.0.10.356	2.0.10.356	08-11-2021	8/11/2021 2:24:16 PM	10:24:16	2.0.10.252	2	0.0	0.0	286495.0	22.0	286495.0	4000.0	-999999.0	449642.0	0.0	446492.0	0.0	Run3Proc	2	1	2	RunList	2.0	OfficeLarge	8000.0	0.0	334494.0	0.0	334494.0	0.0	334494.0	0.0	E3OfficeLargeBlockProc	n/a	n/a	n/a	2.0	1.0	2.0	n/a	n/a	n/a	Run3BlockList	1.0	n/a	n/a	n/a	n/a	n/a	n/a	n/a	n/a	n/a	n/a	n/a	n/a	n/a	n/a	n/a	n/a	n/a	n/a	n/a	n/a	n/a	n/a	n/a	n/a	n/a	n/a	n/a	n/a	n/a	n/a	n/a	n/a	n/a	n/a	n/a	n/a	n/a	n/a	n/a	1.0	1.0	1.0	n/a	n/a	n/a	n/a	n/a	n/a	n/a	n/a	n/a	n/a	n/a	n/a	E3_01.jpg	500.0	0.0	318994.0	0.0	318994.0	0.0	TrialProc1	E3OfficeLargeBlockList	2500.0	1.0	316495.0	1.0	316495.0	-1.0	316494.0	2500.0	c	1926.0	318420.0	29.999
33	2.5	000_R01_VA_allProc	112	1	"<?xml version=""1.0""?>\n<Clock xmlns:dt=""urn:schemas-microsoft-com:datatypes""><Description dt:dt=""string"">E-Prime Primary Realtime Clock</Description><StartTime><Timestamp dt:dt=""int"">0</Timestamp><DateUtc dt:dt=""string"">2021-08-11T14:24:16Z</DateUtc></StartTime><FrequencyChanges><FrequencyChange><Frequency dt:dt=""r8"">3020390</Frequency><Timestamp dt:dt=""r8"">4935492972584</Timestamp><Current dt:dt=""r8"">0</Current><DateUtc dt:dt=""string"">2021-08-11T14:24:16Z</DateUtc></FrequencyChange></FrequencyChanges></Clock>\n"	000_R01_VA_allProc-112-1	60.001	1.0.0.229	1	576146689	Professional	2.0.10.356	2.0.10.356	08-11-2021	8/11/2021 2:24:16 PM	10:24:16	2.0.10.252	2	0.0	0.0	286495.0	22.0	286495.0	4000.0	-999999.0	449642.0	0.0	446492.0	0.0	Run3Proc	2	1	2	RunList	2.0	OfficeLarge	8000.0	0.0	334494.0	0.0	334494.0	0.0	334494.0	0.0	E3OfficeLargeBlockProc	n/a	n/a	n/a	2.0	1.0	2.0	n/a	n/a	n/a	Run3BlockList	2.0	n/a	n/a	n/a	n/a	n/a	n/a	n/a	n/a	n/a	n/a	n/a	n/a	n/a	n/a	n/a	n/a	n/a	n/a	n/a	n/a	n/a	n/a	n/a	n/a	n/a	n/a	n/a	n/a	n/a	n/a	n/a	n/a	n/a	n/a	n/a	n/a	n/a	n/a	n/a	2.0	1.0	2.0	n/a	n/a	n/a	n/a	n/a	n/a	n/a	n/a	n/a	n/a	n/a	n/a	E3_02.jpg	500.0	0.0	321994.0	0.0	321994.0	0.0	TrialProc1	E3OfficeLargeBlockList	2500.0	0.0	319494.0	0.0	319494.0	0.0	319494.0	2500.0	c	1430.0	320924.0	32.998999999999995
36	2.5	000_R01_VA_allProc	112	1	"<?xml version=""1.0""?>\n<Clock xmlns:dt=""urn:schemas-microsoft-com:datatypes""><Description dt:dt=""string"">E-Prime Primary Realtime Clock</Description><StartTime><Timestamp dt:dt=""int"">0</Timestamp><DateUtc dt:dt=""string"">2021-08-11T14:24:16Z</DateUtc></StartTime><FrequencyChanges><FrequencyChange><Frequency dt:dt=""r8"">3020390</Frequency><Timestamp dt:dt=""r8"">4935492972584</Timestamp><Current dt:dt=""r8"">0</Current><DateUtc dt:dt=""string"">2021-08-11T14:24:16Z</DateUtc></FrequencyChange></FrequencyChanges></Clock>\n"	000_R01_VA_allProc-112-1	60.001	1.0.0.229	1	576146689	Professional	2.0.10.356	2.0.10.356	08-11-2021	8/11/2021 2:24:16 PM	10:24:16	2.0.10.252	2	0.0	0.0	286495.0	22.0	286495.0	4000.0	-999999.0	449642.0	0.0	446492.0	0.0	Run3Proc	2	1	2	RunList	2.0	OfficeLarge	8000.0	0.0	334494.0	0.0	334494.0	0.0	334494.0	0.0	E3OfficeLargeBlockProc	n/a	n/a	n/a	2.0	1.0	2.0	n/a	n/a	n/a	Run3BlockList	3.0	n/a	n/a	n/a	n/a	n/a	n/a	n/a	n/a	n/a	n/a	n/a	n/a	n/a	n/a	n/a	n/a	n/a	n/a	n/a	n/a	n/a	n/a	n/a	n/a	n/a	n/a	n/a	n/a	n/a	n/a	n/a	n/a	n/a	n/a	n/a	n/a	n/a	n/a	n/a	3.0	1.0	3.0	n/a	n/a	n/a	n/a	n/a	n/a	n/a	n/a	n/a	n/a	n/a	n/a	E3_03.jpg	500.0	0.0	324994.0	0.0	324994.0	0.0	TrialProc1	E3OfficeLargeBlockList	2500.0	0.0	322494.0	0.0	322494.0	0.0	322494.0	2500.0	c	870.0	323364.0	35.998999999999995
39	2.5	000_R01_VA_allProc	112	1	"<?xml version=""1.0""?>\n<Clock xmlns:dt=""urn:schemas-microsoft-com:datatypes""><Description dt:dt=""string"">E-Prime Primary Realtime Clock</Description><StartTime><Timestamp dt:dt=""int"">0</Timestamp><DateUtc dt:dt=""string"">2021-08-11T14:24:16Z</DateUtc></StartTime><FrequencyChanges><FrequencyChange><Frequency dt:dt=""r8"">3020390</Frequency><Timestamp dt:dt=""r8"">4935492972584</Timestamp><Current dt:dt=""r8"">0</Current><DateUtc dt:dt=""string"">2021-08-11T14:24:16Z</DateUtc></FrequencyChange></FrequencyChanges></Clock>\n"	000_R01_VA_allProc-112-1	60.001	1.0.0.229	1	576146689	Professional	2.0.10.356	2.0.10.356	08-11-2021	8/11/2021 2:24:16 PM	10:24:16	2.0.10.252	2	0.0	0.0	286495.0	22.0	286495.0	4000.0	-999999.0	449642.0	0.0	446492.0	0.0	Run3Proc	2	1	2	RunList	2.0	OfficeLarge	8000.0	0.0	334494.0	0.0	334494.0	0.0	334494.0	0.0	E3OfficeLargeBlockProc	n/a	n/a	n/a	2.0	1.0	2.0	n/a	n/a	n/a	Run3BlockList	4.0	n/a	n/a	n/a	n/a	n/a	n/a	n/a	n/a	n/a	n/a	n/a	n/a	n/a	n/a	n/a	n/a	n/a	n/a	n/a	n/a	n/a	n/a	n/a	n/a	n/a	n/a	n/a	n/a	n/a	n/a	n/a	n/a	n/a	n/a	n/a	n/a	n/a	n/a	n/a	4.0	1.0	4.0	n/a	n/a	n/a	n/a	n/a	n/a	n/a	n/a	n/a	n/a	n/a	n/a	E3_04.jpg	500.0	0.0	327994.0	0.0	327994.0	0.0	TrialProc1	E3OfficeLargeBlockList	2500.0	0.0	325494.0	0.0	325494.0	0.0	325494.0	2500.0	c	2006.0	327500.0	38.999
42	2.5	000_R01_VA_allProc	112	1	"<?xml version=""1.0""?>\n<Clock xmlns:dt=""urn:schemas-microsoft-com:datatypes""><Description dt:dt=""string"">E-Prime Primary Realtime Clock</Description><StartTime><Timestamp dt:dt=""int"">0</Timestamp><DateUtc dt:dt=""string"">2021-08-11T14:24:16Z</DateUtc></StartTime><FrequencyChanges><FrequencyChange><Frequency dt:dt=""r8"">3020390</Frequency><Timestamp dt:dt=""r8"">4935492972584</Timestamp><Current dt:dt=""r8"">0</Current><DateUtc dt:dt=""string"">2021-08-11T14:24:16Z</DateUtc></FrequencyChange></FrequencyChanges></Clock>\n"	000_R01_VA_allProc-112-1	60.001	1.0.0.229	1	576146689	Professional	2.0.10.356	2.0.10.356	08-11-2021	8/11/2021 2:24:16 PM	10:24:16	2.0.10.252	2	0.0	0.0	286495.0	22.0	286495.0	4000.0	-999999.0	449642.0	0.0	446492.0	0.0	Run3Proc	2	1	2	RunList	2.0	OfficeLarge	8000.0	0.0	334494.0	0.0	334494.0	0.0	334494.0	0.0	E3OfficeLargeBlockProc	n/a	n/a	n/a	2.0	1.0	2.0	n/a	n/a	n/a	Run3BlockList	5.0	n/a	n/a	n/a	n/a	n/a	n/a	n/a	n/a	n/a	n/a	n/a	n/a	n/a	n/a	n/a	n/a	n/a	n/a	n/a	n/a	n/a	n/a	n/a	n/a	n/a	n/a	n/a	n/a	n/a	n/a	n/a	n/a	n/a	n/a	n/a	n/a	n/a	n/a	n/a	5.0	1.0	5.0	n/a	n/a	n/a	n/a	n/a	n/a	n/a	n/a	n/a	n/a	n/a	n/a	E3_05.jpg	500.0	0.0	330994.0	0.0	330994.0	0.0	TrialProc1	E3OfficeLargeBlockList	2500.0	0.0	328494.0	0.0	328494.0	0.0	328494.0	2500.0	c	1206.0	329700.0	41.999
45	2.5	000_R01_VA_allProc	112	1	"<?xml version=""1.0""?>\n<Clock xmlns:dt=""urn:schemas-microsoft-com:datatypes""><Description dt:dt=""string"">E-Prime Primary Realtime Clock</Description><StartTime><Timestamp dt:dt=""int"">0</Timestamp><DateUtc dt:dt=""string"">2021-08-11T14:24:16Z</DateUtc></StartTime><FrequencyChanges><FrequencyChange><Frequency dt:dt=""r8"">3020390</Frequency><Timestamp dt:dt=""r8"">4935492972584</Timestamp><Current dt:dt=""r8"">0</Current><DateUtc dt:dt=""string"">2021-08-11T14:24:16Z</DateUtc></FrequencyChange></FrequencyChanges></Clock>\n"	000_R01_VA_allProc-112-1	60.001	1.0.0.229	1	576146689	Professional	2.0.10.356	2.0.10.356	08-11-2021	8/11/2021 2:24:16 PM	10:24:16	2.0.10.252	2	0.0	0.0	286495.0	22.0	286495.0	4000.0	-999999.0	449642.0	0.0	446492.0	0.0	Run3Proc	2	1	2	RunList	2.0	OfficeLarge	8000.0	0.0	334494.0	0.0	334494.0	0.0	334494.0	0.0	E3OfficeLargeBlockProc	n/a	n/a	n/a	2.0	1.0	2.0	n/a	n/a	n/a	Run3BlockList	6.0	n/a	n/a	n/a	n/a	n/a	n/a	n/a	n/a	n/a	n/a	n/a	n/a	n/a	n/a	n/a	n/a	n/a	n/a	n/a	n/a	n/a	n/a	n/a	n/a	n/a	n/a	n/a	n/a	n/a	n/a	n/a	n/a	n/a	n/a	n/a	n/a	n/a	n/a	n/a	6.0	1.0	6.0	n/a	n/a	n/a	n/a	n/a	n/a	n/a	n/a	n/a	n/a	n/a	n/a	E3_06.jpg	500.0	0.0	333994.0	0.0	333994.0	0.0	TrialProc1	E3OfficeLargeBlockList	2500.0	0.0	331494.0	0.0	331494.0	0.0	331494.0	2500.0	c	702.0	332196.0	44.999
56	2.5	000_R01_VA_allProc	112	1	"<?xml version=""1.0""?>\n<Clock xmlns:dt=""urn:schemas-microsoft-com:datatypes""><Description dt:dt=""string"">E-Prime Primary Realtime Clock</Description><StartTime><Timestamp dt:dt=""int"">0</Timestamp><DateUtc dt:dt=""string"">2021-08-11T14:24:16Z</DateUtc></StartTime><FrequencyChanges><FrequencyChange><Frequency dt:dt=""r8"">3020390</Frequency><Timestamp dt:dt=""r8"">4935492972584</Timestamp><Current dt:dt=""r8"">0</Current><DateUtc dt:dt=""string"">2021-08-11T14:24:16Z</DateUtc></FrequencyChange></FrequencyChanges></Clock>\n"	000_R01_VA_allProc-112-1	60.001	1.0.0.229	1	576146689	Professional	2.0.10.356	2.0.10.356	08-11-2021	8/11/2021 2:24:16 PM	10:24:16	2.0.10.252	2	0.0	0.0	286495.0	22.0	286495.0	4000.0	-999999.0	449642.0	0.0	446492.0	0.0	Run3Proc	2	1	2	RunList	3.0	HighSmallED	8000.0	0.0	360494.0	0.0	360494.0	0.0	360494.0	0.0	B3HighSmallEDBlockProc	n/a	n/a	n/a	3.0	1.0	3.0	n/a	n/a	n/a	Run3BlockList	1.0	n/a	n/a	n/a	n/a	n/a	n/a	n/a	n/a	n/a	n/a	n/a	n/a	1.0	1.0	1.0	n/a	n/a	n/a	n/a	n/a	n/a	n/a	n/a	n/a	n/a	n/a	n/a	n/a	n/a	n/a	n/a	n/a	n/a	n/a	n/a	n/a	n/a	n/a	n/a	n/a	n/a	n/a	n/a	n/a	n/a	n/a	n/a	n/a	n/a	n/a	n/a	n/a	n/a	n/a	B3_01.jpg	500.0	0.0	344994.0	0.0	344994.0	0.0	TrialProc1	B3HighSmallEDBlockList	2500.0	0.0	342494.0	0.0	342494.0	0.0	342494.0	2500.0	d	2142.0	344636.0	55.999
59	2.5	000_R01_VA_allProc	112	1	"<?xml version=""1.0""?>\n<Clock xmlns:dt=""urn:schemas-microsoft-com:datatypes""><Description dt:dt=""string"">E-Prime Primary Realtime Clock</Description><StartTime><Timestamp dt:dt=""int"">0</Timestamp><DateUtc dt:dt=""string"">2021-08-11T14:24:16Z</DateUtc></StartTime><FrequencyChanges><FrequencyChange><Frequency dt:dt=""r8"">3020390</Frequency><Timestamp dt:dt=""r8"">4935492972584</Timestamp><Current dt:dt=""r8"">0</Current><DateUtc dt:dt=""string"">2021-08-11T14:24:16Z</DateUtc></FrequencyChange></FrequencyChanges></Clock>\n"	000_R01_VA_allProc-112-1	60.001	1.0.0.229	1	576146689	Professional	2.0.10.356	2.0.10.356	08-11-2021	8/11/2021 2:24:16 PM	10:24:16	2.0.10.252	2	0.0	0.0	286495.0	22.0	286495.0	4000.0	-999999.0	449642.0	0.0	446492.0	0.0	Run3Proc	2	1	2	RunList	3.0	HighSmallED	8000.0	0.0	360494.0	0.0	360494.0	0.0	360494.0	0.0	B3HighSmallEDBlockProc	n/a	n/a	n/a	3.0	1.0	3.0	n/a	n/a	n/a	Run3BlockList	2.0	n/a	n/a	n/a	n/a	n/a	n/a	n/a	n/a	n/a	n/a	n/a	n/a	2.0	1.0	2.0	n/a	n/a	n/a	n/a	n/a	n/a	n/a	n/a	n/a	n/a	n/a	n/a	n/a	n/a	n/a	n/a	n/a	n/a	n/a	n/a	n/a	n/a	n/a	n/a	n/a	n/a	n/a	n/a	n/a	n/a	n/a	n/a	n/a	n/a	n/a	n/a	n/a	n/a	n/a	B3_02.jpg	500.0	0.0	347994.0	0.0	347994.0	0.0	TrialProc1	B3HighSmallEDBlockList	2500.0	0.0	345494.0	0.0	345494.0	0.0	345494.0	2500.0	d	270.0	345764.0	58.999
62	2.5	000_R01_VA_allProc	112	1	"<?xml version=""1.0""?>\n<Clock xmlns:dt=""urn:schemas-microsoft-com:datatypes""><Description dt:dt=""string"">E-Prime Primary Realtime Clock</Description><StartTime><Timestamp dt:dt=""int"">0</Timestamp><DateUtc dt:dt=""string"">2021-08-11T14:24:16Z</DateUtc></StartTime><FrequencyChanges><FrequencyChange><Frequency dt:dt=""r8"">3020390</Frequency><Timestamp dt:dt=""r8"">4935492972584</Timestamp><Current dt:dt=""r8"">0</Current><DateUtc dt:dt=""string"">2021-08-11T14:24:16Z</DateUtc></FrequencyChange></FrequencyChanges></Clock>\n"	000_R01_VA_allProc-112-1	60.001	1.0.0.229	1	576146689	Professional	2.0.10.356	2.0.10.356	08-11-2021	8/11/2021 2:24:16 PM	10:24:16	2.0.10.252	2	0.0	0.0	286495.0	22.0	286495.0	4000.0	-999999.0	449642.0	0.0	446492.0	0.0	Run3Proc	2	1	2	RunList	3.0	HighSmallED	8000.0	0.0	360494.0	0.0	360494.0	0.0	360494.0	0.0	B3HighSmallEDBlockProc	n/a	n/a	n/a	3.0	1.0	3.0	n/a	n/a	n/a	Run3BlockList	3.0	n/a	n/a	n/a	n/a	n/a	n/a	n/a	n/a	n/a	n/a	n/a	n/a	3.0	1.0	3.0	n/a	n/a	n/a	n/a	n/a	n/a	n/a	n/a	n/a	n/a	n/a	n/a	n/a	n/a	n/a	n/a	n/a	n/a	n/a	n/a	n/a	n/a	n/a	n/a	n/a	n/a	n/a	n/a	n/a	n/a	n/a	n/a	n/a	n/a	n/a	n/a	n/a	n/a	n/a	B3_03.jpg	500.0	0.0	350994.0	0.0	350994.0	0.0	TrialProc1	B3HighSmallEDBlockList	2500.0	0.0	348494.0	0.0	348494.0	0.0	348494.0	2500.0	d	726.0	349220.0	61.999
65	2.5	000_R01_VA_allProc	112	1	"<?xml version=""1.0""?>\n<Clock xmlns:dt=""urn:schemas-microsoft-com:datatypes""><Description dt:dt=""string"">E-Prime Primary Realtime Clock</Description><StartTime><Timestamp dt:dt=""int"">0</Timestamp><DateUtc dt:dt=""string"">2021-08-11T14:24:16Z</DateUtc></StartTime><FrequencyChanges><FrequencyChange><Frequency dt:dt=""r8"">3020390</Frequency><Timestamp dt:dt=""r8"">4935492972584</Timestamp><Current dt:dt=""r8"">0</Current><DateUtc dt:dt=""string"">2021-08-11T14:24:16Z</DateUtc></FrequencyChange></FrequencyChanges></Clock>\n"	000_R01_VA_allProc-112-1	60.001	1.0.0.229	1	576146689	Professional	2.0.10.356	2.0.10.356	08-11-2021	8/11/2021 2:24:16 PM	10:24:16	2.0.10.252	2	0.0	0.0	286495.0	22.0	286495.0	4000.0	-999999.0	449642.0	0.0	446492.0	0.0	Run3Proc	2	1	2	RunList	3.0	HighSmallED	8000.0	0.0	360494.0	0.0	360494.0	0.0	360494.0	0.0	B3HighSmallEDBlockProc	n/a	n/a	n/a	3.0	1.0	3.0	n/a	n/a	n/a	Run3BlockList	4.0	n/a	n/a	n/a	n/a	n/a	n/a	n/a	n/a	n/a	n/a	n/a	n/a	4.0	1.0	4.0	n/a	n/a	n/a	n/a	n/a	n/a	n/a	n/a	n/a	n/a	n/a	n/a	n/a	n/a	n/a	n/a	n/a	n/a	n/a	n/a	n/a	n/a	n/a	n/a	n/a	n/a	n/a	n/a	n/a	n/a	n/a	n/a	n/a	n/a	n/a	n/a	n/a	n/a	n/a	B3_04.jpg	500.0	0.0	353994.0	0.0	353994.0	0.0	TrialProc1	B3HighSmallEDBlockList	2500.0	0.0	351494.0	0.0	351494.0	0.0	351494.0	2500.0	d	782.0	352276.0	64.999
68	2.5	000_R01_VA_allProc	112	1	"<?xml version=""1.0""?>\n<Clock xmlns:dt=""urn:schemas-microsoft-com:datatypes""><Description dt:dt=""string"">E-Prime Primary Realtime Clock</Description><StartTime><Timestamp dt:dt=""int"">0</Timestamp><DateUtc dt:dt=""string"">2021-08-11T14:24:16Z</DateUtc></StartTime><FrequencyChanges><FrequencyChange><Frequency dt:dt=""r8"">3020390</Frequency><Timestamp dt:dt=""r8"">4935492972584</Timestamp><Current dt:dt=""r8"">0</Current><DateUtc dt:dt=""string"">2021-08-11T14:24:16Z</DateUtc></FrequencyChange></FrequencyChanges></Clock>\n"	000_R01_VA_allProc-112-1	60.001	1.0.0.229	1	576146689	Professional	2.0.10.356	2.0.10.356	08-11-2021	8/11/2021 2:24:16 PM	10:24:16	2.0.10.252	2	0.0	0.0	286495.0	22.0	286495.0	4000.0	-999999.0	449642.0	0.0	446492.0	0.0	Run3Proc	2	1	2	RunList	3.0	HighSmallED	8000.0	0.0	360494.0	0.0	360494.0	0.0	360494.0	0.0	B3HighSmallEDBlockProc	n/a	n/a	n/a	3.0	1.0	3.0	n/a	n/a	n/a	Run3BlockList	5.0	n/a	n/a	n/a	n/a	n/a	n/a	n/a	n/a	n/a	n/a	n/a	n/a	5.0	1.0	5.0	n/a	n/a	n/a	n/a	n/a	n/a	n/a	n/a	n/a	n/a	n/a	n/a	n/a	n/a	n/a	n/a	n/a	n/a	n/a	n/a	n/a	n/a	n/a	n/a	n/a	n/a	n/a	n/a	n/a	n/a	n/a	n/a	n/a	n/a	n/a	n/a	n/a	n/a	n/a	B3_05.jpg	500.0	0.0	356994.0	0.0	356994.0	0.0	TrialProc1	B3HighSmallEDBlockList	2500.0	0.0	354494.0	0.0	354494.0	0.0	354494.0	2500.0	d	677.0	355171.0	67.999
71	2.5	000_R01_VA_allProc	112	1	"<?xml version=""1.0""?>\n<Clock xmlns:dt=""urn:schemas-microsoft-com:datatypes""><Description dt:dt=""string"">E-Prime Primary Realtime Clock</Description><StartTime><Timestamp dt:dt=""int"">0</Timestamp><DateUtc dt:dt=""string"">2021-08-11T14:24:16Z</DateUtc></StartTime><FrequencyChanges><FrequencyChange><Frequency dt:dt=""r8"">3020390</Frequency><Timestamp dt:dt=""r8"">4935492972584</Timestamp><Current dt:dt=""r8"">0</Current><DateUtc dt:dt=""string"">2021-08-11T14:24:16Z</DateUtc></FrequencyChange></FrequencyChanges></Clock>\n"	000_R01_VA_allProc-112-1	60.001	1.0.0.229	1	576146689	Professional	2.0.10.356	2.0.10.356	08-11-2021	8/11/2021 2:24:16 PM	10:24:16	2.0.10.252	2	0.0	0.0	286495.0	22.0	286495.0	4000.0	-999999.0	449642.0	0.0	446492.0	0.0	Run3Proc	2	1	2	RunList	3.0	HighSmallED	8000.0	0.0	360494.0	0.0	360494.0	0.0	360494.0	0.0	B3HighSmallEDBlockProc	n/a	n/a	n/a	3.0	1.0	3.0	n/a	n/a	n/a	Run3BlockList	6.0	n/a	n/a	n/a	n/a	n/a	n/a	n/a	n/a	n/a	n/a	n/a	n/a	6.0	1.0	6.0	n/a	n/a	n/a	n/a	n/a	n/a	n/a	n/a	n/a	n/a	n/a	n/a	n/a	n/a	n/a	n/a	n/a	n/a	n/a	n/a	n/a	n/a	n/a	n/a	n/a	n/a	n/a	n/a	n/a	n/a	n/a	n/a	n/a	n/a	n/a	n/a	n/a	n/a	n/a	B3_06.jpg	500.0	0.0	359994.0	0.0	359994.0	0.0	TrialProc1	B3HighSmallEDBlockList	2500.0	0.0	357494.0	0.0	357494.0	0.0	357494.0	2500.0	d	485.0	357979.0	70.999
82	2.5	000_R01_VA_allProc	112	1	"<?xml version=""1.0""?>\n<Clock xmlns:dt=""urn:schemas-microsoft-com:datatypes""><Description dt:dt=""string"">E-Prime Primary Realtime Clock</Description><StartTime><Timestamp dt:dt=""int"">0</Timestamp><DateUtc dt:dt=""string"">2021-08-11T14:24:16Z</DateUtc></StartTime><FrequencyChanges><FrequencyChange><Frequency dt:dt=""r8"">3020390</Frequency><Timestamp dt:dt=""r8"">4935492972584</Timestamp><Current dt:dt=""r8"">0</Current><DateUtc dt:dt=""string"">2021-08-11T14:24:16Z</DateUtc></FrequencyChange></FrequencyChanges></Clock>\n"	000_R01_VA_allProc-112-1	60.001	1.0.0.229	1	576146689	Professional	2.0.10.356	2.0.10.356	08-11-2021	8/11/2021 2:24:16 PM	10:24:16	2.0.10.252	2	0.0	0.0	286495.0	22.0	286495.0	4000.0	-999999.0	449642.0	0.0	446492.0	0.0	Run3Proc	2	1	2	RunList	4.0	OfficeSmall	8000.0	0.0	386493.0	0.0	386493.0	0.0	386493.0	0.0	F3OfficeSmallBlockProc	n/a	n/a	n/a	4.0	1.0	4.0	n/a	n/a	n/a	Run3BlockList	1.0	n/a	n/a	n/a	n/a	n/a	n/a	n/a	n/a	n/a	n/a	n/a	n/a	n/a	n/a	n/a	n/a	n/a	n/a	n/a	n/a	n/a	n/a	n/a	n/a	n/a	n/a	n/a	n/a	n/a	n/a	n/a	n/a	n/a	n/a	n/a	n/a	n/a	n/a	n/a	n/a	n/a	n/a	n/a	n/a	n/a	n/a	n/a	n/a	1.0	1.0	1.0	n/a	n/a	n/a	F3_01.jpg	500.0	0.0	370994.0	0.0	370994.0	0.0	TrialProc1	F3OfficeSmallBlockList	2500.0	0.0	368494.0	0.0	368494.0	0.0	368494.0	2500.0	n/a	0.0	0.0	81.999
85	2.5	000_R01_VA_allProc	112	1	"<?xml version=""1.0""?>\n<Clock xmlns:dt=""urn:schemas-microsoft-com:datatypes""><Description dt:dt=""string"">E-Prime Primary Realtime Clock</Description><StartTime><Timestamp dt:dt=""int"">0</Timestamp><DateUtc dt:dt=""string"">2021-08-11T14:24:16Z</DateUtc></StartTime><FrequencyChanges><FrequencyChange><Frequency dt:dt=""r8"">3020390</Frequency><Timestamp dt:dt=""r8"">4935492972584</Timestamp><Current dt:dt=""r8"">0</Current><DateUtc dt:dt=""string"">2021-08-11T14:24:16Z</DateUtc></FrequencyChange></FrequencyChanges></Clock>\n"	000_R01_VA_allProc-112-1	60.001	1.0.0.229	1	576146689	Professional	2.0.10.356	2.0.10.356	08-11-2021	8/11/2021 2:24:16 PM	10:24:16	2.0.10.252	2	0.0	0.0	286495.0	22.0	286495.0	4000.0	-999999.0	449642.0	0.0	446492.0	0.0	Run3Proc	2	1	2	RunList	4.0	OfficeSmall	8000.0	0.0	386493.0	0.0	386493.0	0.0	386493.0	0.0	F3OfficeSmallBlockProc	n/a	n/a	n/a	4.0	1.0	4.0	n/a	n/a	n/a	Run3BlockList	2.0	n/a	n/a	n/a	n/a	n/a	n/a	n/a	n/a	n/a	n/a	n/a	n/a	n/a	n/a	n/a	n/a	n/a	n/a	n/a	n/a	n/a	n/a	n/a	n/a	n/a	n/a	n/a	n/a	n/a	n/a	n/a	n/a	n/a	n/a	n/a	n/a	n/a	n/a	n/a	n/a	n/a	n/a	n/a	n/a	n/a	n/a	n/a	n/a	2.0	1.0	2.0	n/a	n/a	n/a	F3_02.jpg	500.0	0.0	373994.0	0.0	373994.0	0.0	TrialProc1	F3OfficeSmallBlockList	2500.0	0.0	371494.0	0.0	371494.0	0.0	371494.0	2500.0	c	733.0	372227.0	84.999
88	2.5	000_R01_VA_allProc	112	1	"<?xml version=""1.0""?>\n<Clock xmlns:dt=""urn:schemas-microsoft-com:datatypes""><Description dt:dt=""string"">E-Prime Primary Realtime Clock</Description><StartTime><Timestamp dt:dt=""int"">0</Timestamp><DateUtc dt:dt=""string"">2021-08-11T14:24:16Z</DateUtc></StartTime><FrequencyChanges><FrequencyChange><Frequency dt:dt=""r8"">3020390</Frequency><Timestamp dt:dt=""r8"">4935492972584</Timestamp><Current dt:dt=""r8"">0</Current><DateUtc dt:dt=""string"">2021-08-11T14:24:16Z</DateUtc></FrequencyChange></FrequencyChanges></Clock>\n"	000_R01_VA_allProc-112-1	60.001	1.0.0.229	1	576146689	Professional	2.0.10.356	2.0.10.356	08-11-2021	8/11/2021 2:24:16 PM	10:24:16	2.0.10.252	2	0.0	0.0	286495.0	22.0	286495.0	4000.0	-999999.0	449642.0	0.0	446492.0	0.0	Run3Proc	2	1	2	RunList	4.0	OfficeSmall	8000.0	0.0	386493.0	0.0	386493.0	0.0	386493.0	0.0	F3OfficeSmallBlockProc	n/a	n/a	n/a	4.0	1.0	4.0	n/a	n/a	n/a	Run3BlockList	3.0	n/a	n/a	n/a	n/a	n/a	n/a	n/a	n/a	n/a	n/a	n/a	n/a	n/a	n/a	n/a	n/a	n/a	n/a	n/a	n/a	n/a	n/a	n/a	n/a	n/a	n/a	n/a	n/a	n/a	n/a	n/a	n/a	n/a	n/a	n/a	n/a	n/a	n/a	n/a	n/a	n/a	n/a	n/a	n/a	n/a	n/a	n/a	n/a	3.0	1.0	3.0	n/a	n/a	n/a	F3_03.jpg	500.0	1.0	376994.0	-1.0	376993.0	0.0	TrialProc1	F3OfficeSmallBlockList	2500.0	0.0	374494.0	0.0	374494.0	0.0	374494.0	2499.0	c	821.0	375315.0	87.999
91	2.5	000_R01_VA_allProc	112	1	"<?xml version=""1.0""?>\n<Clock xmlns:dt=""urn:schemas-microsoft-com:datatypes""><Description dt:dt=""string"">E-Prime Primary Realtime Clock</Description><StartTime><Timestamp dt:dt=""int"">0</Timestamp><DateUtc dt:dt=""string"">2021-08-11T14:24:16Z</DateUtc></StartTime><FrequencyChanges><FrequencyChange><Frequency dt:dt=""r8"">3020390</Frequency><Timestamp dt:dt=""r8"">4935492972584</Timestamp><Current dt:dt=""r8"">0</Current><DateUtc dt:dt=""string"">2021-08-11T14:24:16Z</DateUtc></FrequencyChange></FrequencyChanges></Clock>\n"	000_R01_VA_allProc-112-1	60.001	1.0.0.229	1	576146689	Professional	2.0.10.356	2.0.10.356	08-11-2021	8/11/2021 2:24:16 PM	10:24:16	2.0.10.252	2	0.0	0.0	286495.0	22.0	286495.0	4000.0	-999999.0	449642.0	0.0	446492.0	0.0	Run3Proc	2	1	2	RunList	4.0	OfficeSmall	8000.0	0.0	386493.0	0.0	386493.0	0.0	386493.0	0.0	F3OfficeSmallBlockProc	n/a	n/a	n/a	4.0	1.0	4.0	n/a	n/a	n/a	Run3BlockList	4.0	n/a	n/a	n/a	n/a	n/a	n/a	n/a	n/a	n/a	n/a	n/a	n/a	n/a	n/a	n/a	n/a	n/a	n/a	n/a	n/a	n/a	n/a	n/a	n/a	n/a	n/a	n/a	n/a	n/a	n/a	n/a	n/a	n/a	n/a	n/a	n/a	n/a	n/a	n/a	n/a	n/a	n/a	n/a	n/a	n/a	n/a	n/a	n/a	4.0	1.0	4.0	n/a	n/a	n/a	F3_04.jpg	500.0	0.0	379994.0	0.0	379993.0	0.0	TrialProc1	F3OfficeSmallBlockList	2500.0	1.0	377494.0	1.0	377494.0	0.0	377493.0	2500.0	c	1110.0	378603.0	90.998
94	2.5	000_R01_VA_allProc	112	1	"<?xml version=""1.0""?>\n<Clock xmlns:dt=""urn:schemas-microsoft-com:datatypes""><Description dt:dt=""string"">E-Prime Primary Realtime Clock</Description><StartTime><Timestamp dt:dt=""int"">0</Timestamp><DateUtc dt:dt=""string"">2021-08-11T14:24:16Z</DateUtc></StartTime><FrequencyChanges><FrequencyChange><Frequency dt:dt=""r8"">3020390</Frequency><Timestamp dt:dt=""r8"">4935492972584</Timestamp><Current dt:dt=""r8"">0</Current><DateUtc dt:dt=""string"">2021-08-11T14:24:16Z</DateUtc></FrequencyChange></FrequencyChanges></Clock>\n"	000_R01_VA_allProc-112-1	60.001	1.0.0.229	1	576146689	Professional	2.0.10.356	2.0.10.356	08-11-2021	8/11/2021 2:24:16 PM	10:24:16	2.0.10.252	2	0.0	0.0	286495.0	22.0	286495.0	4000.0	-999999.0	449642.0	0.0	446492.0	0.0	Run3Proc	2	1	2	RunList	4.0	OfficeSmall	8000.0	0.0	386493.0	0.0	386493.0	0.0	386493.0	0.0	F3OfficeSmallBlockProc	n/a	n/a	n/a	4.0	1.0	4.0	n/a	n/a	n/a	Run3BlockList	5.0	n/a	n/a	n/a	n/a	n/a	n/a	n/a	n/a	n/a	n/a	n/a	n/a	n/a	n/a	n/a	n/a	n/a	n/a	n/a	n/a	n/a	n/a	n/a	n/a	n/a	n/a	n/a	n/a	n/a	n/a	n/a	n/a	n/a	n/a	n/a	n/a	n/a	n/a	n/a	n/a	n/a	n/a	n/a	n/a	n/a	n/a	n/a	n/a	5.0	1.0	5.0	n/a	n/a	n/a	F3_05.jpg	500.0	0.0	382993.0	0.0	382993.0	0.0	TrialProc1	F3OfficeSmallBlockList	2500.0	1.0	380494.0	1.0	380494.0	0.0	380493.0	2500.0	c	510.0	381003.0	93.998
97	2.5	000_R01_VA_allProc	112	1	"<?xml version=""1.0""?>\n<Clock xmlns:dt=""urn:schemas-microsoft-com:datatypes""><Description dt:dt=""string"">E-Prime Primary Realtime Clock</Description><StartTime><Timestamp dt:dt=""int"">0</Timestamp><DateUtc dt:dt=""string"">2021-08-11T14:24:16Z</DateUtc></StartTime><FrequencyChanges><FrequencyChange><Frequency dt:dt=""r8"">3020390</Frequency><Timestamp dt:dt=""r8"">4935492972584</Timestamp><Current dt:dt=""r8"">0</Current><DateUtc dt:dt=""string"">2021-08-11T14:24:16Z</DateUtc></FrequencyChange></FrequencyChanges></Clock>\n"	000_R01_VA_allProc-112-1	60.001	1.0.0.229	1	576146689	Professional	2.0.10.356	2.0.10.356	08-11-2021	8/11/2021 2:24:16 PM	10:24:16	2.0.10.252	2	0.0	0.0	286495.0	22.0	286495.0	4000.0	-999999.0	449642.0	0.0	446492.0	0.0	Run3Proc	2	1	2	RunList	4.0	OfficeSmall	8000.0	0.0	386493.0	0.0	386493.0	0.0	386493.0	0.0	F3OfficeSmallBlockProc	n/a	n/a	n/a	4.0	1.0	4.0	n/a	n/a	n/a	Run3BlockList	6.0	n/a	n/a	n/a	n/a	n/a	n/a	n/a	n/a	n/a	n/a	n/a	n/a	n/a	n/a	n/a	n/a	n/a	n/a	n/a	n/a	n/a	n/a	n/a	n/a	n/a	n/a	n/a	n/a	n/a	n/a	n/a	n/a	n/a	n/a	n/a	n/a	n/a	n/a	n/a	n/a	n/a	n/a	n/a	n/a	n/a	n/a	n/a	n/a	6.0	1.0	6.0	n/a	n/a	n/a	F3_06.jpg	500.0	0.0	385993.0	0.0	385993.0	0.0	TrialProc1	F3OfficeSmallBlockList	2500.0	0.0	383493.0	0.0	383493.0	0.0	383493.0	2500.0	c	1326.0	384819.0	96.998
108	2.5	000_R01_VA_allProc	112	1	"<?xml version=""1.0""?>\n<Clock xmlns:dt=""urn:schemas-microsoft-com:datatypes""><Description dt:dt=""string"">E-Prime Primary Realtime Clock</Description><StartTime><Timestamp dt:dt=""int"">0</Timestamp><DateUtc dt:dt=""string"">2021-08-11T14:24:16Z</DateUtc></StartTime><FrequencyChanges><FrequencyChange><Frequency dt:dt=""r8"">3020390</Frequency><Timestamp dt:dt=""r8"">4935492972584</Timestamp><Current dt:dt=""r8"">0</Current><DateUtc dt:dt=""string"">2021-08-11T14:24:16Z</DateUtc></FrequencyChange></FrequencyChanges></Clock>\n"	000_R01_VA_allProc-112-1	60.001	1.0.0.229	1	576146689	Professional	2.0.10.356	2.0.10.356	08-11-2021	8/11/2021 2:24:16 PM	10:24:16	2.0.10.252	2	0.0	0.0	286495.0	22.0	286495.0	4000.0	-999999.0	449642.0	0.0	446492.0	0.0	Run3Proc	2	1	2	RunList	5.0	HighLargeED	8000.0	0.0	412493.0	0.0	412493.0	0.0	412493.0	0.0	A3HighLargeEDBlockProc	n/a	n/a	n/a	5.0	1.0	5.0	n/a	n/a	n/a	Run3BlockList	1.0	n/a	n/a	n/a	1.0	1.0	1.0	n/a	n/a	n/a	n/a	n/a	n/a	n/a	n/a	n/a	n/a	n/a	n/a	n/a	n/a	n/a	n/a	n/a	n/a	n/a	n/a	n/a	n/a	n/a	n/a	n/a	n/a	n/a	n/a	n/a	n/a	n/a	n/a	n/a	n/a	n/a	n/a	n/a	n/a	n/a	n/a	n/a	n/a	n/a	n/a	n/a	n/a	n/a	n/a	A3_01.jpg	500.0	0.0	396993.0	0.0	396993.0	0.0	TrialProc1	A3HighLargeEDBlockList	2500.0	0.0	394493.0	0.0	394493.0	0.0	394493.0	2500.0	c	1110.0	395603.0	107.998
111	2.5	000_R01_VA_allProc	112	1	"<?xml version=""1.0""?>\n<Clock xmlns:dt=""urn:schemas-microsoft-com:datatypes""><Description dt:dt=""string"">E-Prime Primary Realtime Clock</Description><StartTime><Timestamp dt:dt=""int"">0</Timestamp><DateUtc dt:dt=""string"">2021-08-11T14:24:16Z</DateUtc></StartTime><FrequencyChanges><FrequencyChange><Frequency dt:dt=""r8"">3020390</Frequency><Timestamp dt:dt=""r8"">4935492972584</Timestamp><Current dt:dt=""r8"">0</Current><DateUtc dt:dt=""string"">2021-08-11T14:24:16Z</DateUtc></FrequencyChange></FrequencyChanges></Clock>\n"	000_R01_VA_allProc-112-1	60.001	1.0.0.229	1	576146689	Professional	2.0.10.356	2.0.10.356	08-11-2021	8/11/2021 2:24:16 PM	10:24:16	2.0.10.252	2	0.0	0.0	286495.0	22.0	286495.0	4000.0	-999999.0	449642.0	0.0	446492.0	0.0	Run3Proc	2	1	2	RunList	5.0	HighLargeED	8000.0	0.0	412493.0	0.0	412493.0	0.0	412493.0	0.0	A3HighLargeEDBlockProc	n/a	n/a	n/a	5.0	1.0	5.0	n/a	n/a	n/a	Run3BlockList	2.0	n/a	n/a	n/a	2.0	1.0	2.0	n/a	n/a	n/a	n/a	n/a	n/a	n/a	n/a	n/a	n/a	n/a	n/a	n/a	n/a	n/a	n/a	n/a	n/a	n/a	n/a	n/a	n/a	n/a	n/a	n/a	n/a	n/a	n/a	n/a	n/a	n/a	n/a	n/a	n/a	n/a	n/a	n/a	n/a	n/a	n/a	n/a	n/a	n/a	n/a	n/a	n/a	n/a	n/a	A3_02.jpg	500.0	0.0	399993.0	0.0	399993.0	0.0	TrialProc1	A3HighLargeEDBlockList	2500.0	0.0	397493.0	0.0	397493.0	0.0	397493.0	2500.0	d	94.0	397587.0	110.998
114	2.5	000_R01_VA_allProc	112	1	"<?xml version=""1.0""?>\n<Clock xmlns:dt=""urn:schemas-microsoft-com:datatypes""><Description dt:dt=""string"">E-Prime Primary Realtime Clock</Description><StartTime><Timestamp dt:dt=""int"">0</Timestamp><DateUtc dt:dt=""string"">2021-08-11T14:24:16Z</DateUtc></StartTime><FrequencyChanges><FrequencyChange><Frequency dt:dt=""r8"">3020390</Frequency><Timestamp dt:dt=""r8"">4935492972584</Timestamp><Current dt:dt=""r8"">0</Current><DateUtc dt:dt=""string"">2021-08-11T14:24:16Z</DateUtc></FrequencyChange></FrequencyChanges></Clock>\n"	000_R01_VA_allProc-112-1	60.001	1.0.0.229	1	576146689	Professional	2.0.10.356	2.0.10.356	08-11-2021	8/11/2021 2:24:16 PM	10:24:16	2.0.10.252	2	0.0	0.0	286495.0	22.0	286495.0	4000.0	-999999.0	449642.0	0.0	446492.0	0.0	Run3Proc	2	1	2	RunList	5.0	HighLargeED	8000.0	0.0	412493.0	0.0	412493.0	0.0	412493.0	0.0	A3HighLargeEDBlockProc	n/a	n/a	n/a	5.0	1.0	5.0	n/a	n/a	n/a	Run3BlockList	3.0	n/a	n/a	n/a	3.0	1.0	3.0	n/a	n/a	n/a	n/a	n/a	n/a	n/a	n/a	n/a	n/a	n/a	n/a	n/a	n/a	n/a	n/a	n/a	n/a	n/a	n/a	n/a	n/a	n/a	n/a	n/a	n/a	n/a	n/a	n/a	n/a	n/a	n/a	n/a	n/a	n/a	n/a	n/a	n/a	n/a	n/a	n/a	n/a	n/a	n/a	n/a	n/a	n/a	n/a	A3_03.jpg	500.0	0.0	402993.0	0.0	402993.0	0.0	TrialProc1	A3HighLargeEDBlockList	2500.0	0.0	400493.0	0.0	400493.0	0.0	400493.0	2500.0	d	30.0	400523.0	113.998
117	2.5	000_R01_VA_allProc	112	1	"<?xml version=""1.0""?>\n<Clock xmlns:dt=""urn:schemas-microsoft-com:datatypes""><Description dt:dt=""string"">E-Prime Primary Realtime Clock</Description><StartTime><Timestamp dt:dt=""int"">0</Timestamp><DateUtc dt:dt=""string"">2021-08-11T14:24:16Z</DateUtc></StartTime><FrequencyChanges><FrequencyChange><Frequency dt:dt=""r8"">3020390</Frequency><Timestamp dt:dt=""r8"">4935492972584</Timestamp><Current dt:dt=""r8"">0</Current><DateUtc dt:dt=""string"">2021-08-11T14:24:16Z</DateUtc></FrequencyChange></FrequencyChanges></Clock>\n"	000_R01_VA_allProc-112-1	60.001	1.0.0.229	1	576146689	Professional	2.0.10.356	2.0.10.356	08-11-2021	8/11/2021 2:24:16 PM	10:24:16	2.0.10.252	2	0.0	0.0	286495.0	22.0	286495.0	4000.0	-999999.0	449642.0	0.0	446492.0	0.0	Run3Proc	2	1	2	RunList	5.0	HighLargeED	8000.0	0.0	412493.0	0.0	412493.0	0.0	412493.0	0.0	A3HighLargeEDBlockProc	n/a	n/a	n/a	5.0	1.0	5.0	n/a	n/a	n/a	Run3BlockList	4.0	n/a	n/a	n/a	4.0	1.0	4.0	n/a	n/a	n/a	n/a	n/a	n/a	n/a	n/a	n/a	n/a	n/a	n/a	n/a	n/a	n/a	n/a	n/a	n/a	n/a	n/a	n/a	n/a	n/a	n/a	n/a	n/a	n/a	n/a	n/a	n/a	n/a	n/a	n/a	n/a	n/a	n/a	n/a	n/a	n/a	n/a	n/a	n/a	n/a	n/a	n/a	n/a	n/a	n/a	A3_04.jpg	500.0	0.0	405993.0	0.0	405993.0	0.0	TrialProc1	A3HighLargeEDBlockList	2500.0	0.0	403493.0	0.0	403493.0	0.0	403493.0	2500.0	d	606.0	404099.0	116.998
120	2.5	000_R01_VA_allProc	112	1	"<?xml version=""1.0""?>\n<Clock xmlns:dt=""urn:schemas-microsoft-com:datatypes""><Description dt:dt=""string"">E-Prime Primary Realtime Clock</Description><StartTime><Timestamp dt:dt=""int"">0</Timestamp><DateUtc dt:dt=""string"">2021-08-11T14:24:16Z</DateUtc></StartTime><FrequencyChanges><FrequencyChange><Frequency dt:dt=""r8"">3020390</Frequency><Timestamp dt:dt=""r8"">4935492972584</Timestamp><Current dt:dt=""r8"">0</Current><DateUtc dt:dt=""string"">2021-08-11T14:24:16Z</DateUtc></FrequencyChange></FrequencyChanges></Clock>\n"	000_R01_VA_allProc-112-1	60.001	1.0.0.229	1	576146689	Professional	2.0.10.356	2.0.10.356	08-11-2021	8/11/2021 2:24:16 PM	10:24:16	2.0.10.252	2	0.0	0.0	286495.0	22.0	286495.0	4000.0	-999999.0	449642.0	0.0	446492.0	0.0	Run3Proc	2	1	2	RunList	5.0	HighLargeED	8000.0	0.0	412493.0	0.0	412493.0	0.0	412493.0	0.0	A3HighLargeEDBlockProc	n/a	n/a	n/a	5.0	1.0	5.0	n/a	n/a	n/a	Run3BlockList	5.0	n/a	n/a	n/a	5.0	1.0	5.0	n/a	n/a	n/a	n/a	n/a	n/a	n/a	n/a	n/a	n/a	n/a	n/a	n/a	n/a	n/a	n/a	n/a	n/a	n/a	n/a	n/a	n/a	n/a	n/a	n/a	n/a	n/a	n/a	n/a	n/a	n/a	n/a	n/a	n/a	n/a	n/a	n/a	n/a	n/a	n/a	n/a	n/a	n/a	n/a	n/a	n/a	n/a	n/a	A3_05.jpg	500.0	0.0	408993.0	0.0	408993.0	0.0	TrialProc1	A3HighLargeEDBlockList	2500.0	0.0	406493.0	0.0	406493.0	0.0	406493.0	2500.0	d	350.0	406843.0	119.998
123	2.5	000_R01_VA_allProc	112	1	"<?xml version=""1.0""?>\n<Clock xmlns:dt=""urn:schemas-microsoft-com:datatypes""><Description dt:dt=""string"">E-Prime Primary Realtime Clock</Description><StartTime><Timestamp dt:dt=""int"">0</Timestamp><DateUtc dt:dt=""string"">2021-08-11T14:24:16Z</DateUtc></StartTime><FrequencyChanges><FrequencyChange><Frequency dt:dt=""r8"">3020390</Frequency><Timestamp dt:dt=""r8"">4935492972584</Timestamp><Current dt:dt=""r8"">0</Current><DateUtc dt:dt=""string"">2021-08-11T14:24:16Z</DateUtc></FrequencyChange></FrequencyChanges></Clock>\n"	000_R01_VA_allProc-112-1	60.001	1.0.0.229	1	576146689	Professional	2.0.10.356	2.0.10.356	08-11-2021	8/11/2021 2:24:16 PM	10:24:16	2.0.10.252	2	0.0	0.0	286495.0	22.0	286495.0	4000.0	-999999.0	449642.0	0.0	446492.0	0.0	Run3Proc	2	1	2	RunList	5.0	HighLargeED	8000.0	0.0	412493.0	0.0	412493.0	0.0	412493.0	0.0	A3HighLargeEDBlockProc	n/a	n/a	n/a	5.0	1.0	5.0	n/a	n/a	n/a	Run3BlockList	6.0	n/a	n/a	n/a	6.0	1.0	6.0	n/a	n/a	n/a	n/a	n/a	n/a	n/a	n/a	n/a	n/a	n/a	n/a	n/a	n/a	n/a	n/a	n/a	n/a	n/a	n/a	n/a	n/a	n/a	n/a	n/a	n/a	n/a	n/a	n/a	n/a	n/a	n/a	n/a	n/a	n/a	n/a	n/a	n/a	n/a	n/a	n/a	n/a	n/a	n/a	n/a	n/a	n/a	n/a	A3_06.jpg	500.0	0.0	411993.0	0.0	411993.0	0.0	TrialProc1	A3HighLargeEDBlockList	2500.0	0.0	409493.0	0.0	409493.0	0.0	409493.0	2500.0	d	1246.0	410739.0	122.998
134	2.5	000_R01_VA_allProc	112	1	"<?xml version=""1.0""?>\n<Clock xmlns:dt=""urn:schemas-microsoft-com:datatypes""><Description dt:dt=""string"">E-Prime Primary Realtime Clock</Description><StartTime><Timestamp dt:dt=""int"">0</Timestamp><DateUtc dt:dt=""string"">2021-08-11T14:24:16Z</DateUtc></StartTime><FrequencyChanges><FrequencyChange><Frequency dt:dt=""r8"">3020390</Frequency><Timestamp dt:dt=""r8"">4935492972584</Timestamp><Current dt:dt=""r8"">0</Current><DateUtc dt:dt=""string"">2021-08-11T14:24:16Z</DateUtc></FrequencyChange></FrequencyChanges></Clock>\n"	000_R01_VA_allProc-112-1	60.001	1.0.0.229	1	576146689	Professional	2.0.10.356	2.0.10.356	08-11-2021	8/11/2021 2:24:16 PM	10:24:16	2.0.10.252	2	0.0	0.0	286495.0	22.0	286495.0	4000.0	-999999.0	449642.0	0.0	446492.0	0.0	Run3Proc	2	1	2	RunList	6.0	LowLargeED	8000.0	1.0	438493.0	1.0	438493.0	-1.0	438492.0	0.0	C3LowLargeEDBlockProc	n/a	n/a	n/a	6.0	1.0	6.0	n/a	n/a	n/a	Run3BlockList	1.0	n/a	n/a	n/a	n/a	n/a	n/a	n/a	n/a	n/a	n/a	n/a	n/a	n/a	n/a	n/a	n/a	n/a	n/a	n/a	n/a	n/a	1.0	1.0	1.0	n/a	n/a	n/a	n/a	n/a	n/a	n/a	n/a	n/a	n/a	n/a	n/a	n/a	n/a	n/a	n/a	n/a	n/a	n/a	n/a	n/a	n/a	n/a	n/a	n/a	n/a	n/a	n/a	n/a	n/a	C3_01.jpg	500.0	0.0	422993.0	0.0	422993.0	0.0	TrialProc1	C3LowLargeEDBlockList	2500.0	0.0	420493.0	0.0	420493.0	0.0	420493.0	2500.0	d	1614.0	422107.0	133.998
137	2.5	000_R01_VA_allProc	112	1	"<?xml version=""1.0""?>\n<Clock xmlns:dt=""urn:schemas-microsoft-com:datatypes""><Description dt:dt=""string"">E-Prime Primary Realtime Clock</Description><StartTime><Timestamp dt:dt=""int"">0</Timestamp><DateUtc dt:dt=""string"">2021-08-11T14:24:16Z</DateUtc></StartTime><FrequencyChanges><FrequencyChange><Frequency dt:dt=""r8"">3020390</Frequency><Timestamp dt:dt=""r8"">4935492972584</Timestamp><Current dt:dt=""r8"">0</Current><DateUtc dt:dt=""string"">2021-08-11T14:24:16Z</DateUtc></FrequencyChange></FrequencyChanges></Clock>\n"	000_R01_VA_allProc-112-1	60.001	1.0.0.229	1	576146689	Professional	2.0.10.356	2.0.10.356	08-11-2021	8/11/2021 2:24:16 PM	10:24:16	2.0.10.252	2	0.0	0.0	286495.0	22.0	286495.0	4000.0	-999999.0	449642.0	0.0	446492.0	0.0	Run3Proc	2	1	2	RunList	6.0	LowLargeED	8000.0	1.0	438493.0	1.0	438493.0	-1.0	438492.0	0.0	C3LowLargeEDBlockProc	n/a	n/a	n/a	6.0	1.0	6.0	n/a	n/a	n/a	Run3BlockList	2.0	n/a	n/a	n/a	n/a	n/a	n/a	n/a	n/a	n/a	n/a	n/a	n/a	n/a	n/a	n/a	n/a	n/a	n/a	n/a	n/a	n/a	2.0	1.0	2.0	n/a	n/a	n/a	n/a	n/a	n/a	n/a	n/a	n/a	n/a	n/a	n/a	n/a	n/a	n/a	n/a	n/a	n/a	n/a	n/a	n/a	n/a	n/a	n/a	n/a	n/a	n/a	n/a	n/a	n/a	C3_02.jpg	500.0	0.0	425993.0	0.0	425993.0	0.0	TrialProc1	C3LowLargeEDBlockList	2500.0	0.0	423493.0	0.0	423493.0	0.0	423493.0	2500.0	d	1214.0	424707.0	136.998
140	2.5	000_R01_VA_allProc	112	1	"<?xml version=""1.0""?>\n<Clock xmlns:dt=""urn:schemas-microsoft-com:datatypes""><Description dt:dt=""string"">E-Prime Primary Realtime Clock</Description><StartTime><Timestamp dt:dt=""int"">0</Timestamp><DateUtc dt:dt=""string"">2021-08-11T14:24:16Z</DateUtc></StartTime><FrequencyChanges><FrequencyChange><Frequency dt:dt=""r8"">3020390</Frequency><Timestamp dt:dt=""r8"">4935492972584</Timestamp><Current dt:dt=""r8"">0</Current><DateUtc dt:dt=""string"">2021-08-11T14:24:16Z</DateUtc></FrequencyChange></FrequencyChanges></Clock>\n"	000_R01_VA_allProc-112-1	60.001	1.0.0.229	1	576146689	Professional	2.0.10.356	2.0.10.356	08-11-2021	8/11/2021 2:24:16 PM	10:24:16	2.0.10.252	2	0.0	0.0	286495.0	22.0	286495.0	4000.0	-999999.0	449642.0	0.0	446492.0	0.0	Run3Proc	2	1	2	RunList	6.0	LowLargeED	8000.0	1.0	438493.0	1.0	438493.0	-1.0	438492.0	0.0	C3LowLargeEDBlockProc	n/a	n/a	n/a	6.0	1.0	6.0	n/a	n/a	n/a	Run3BlockList	3.0	n/a	n/a	n/a	n/a	n/a	n/a	n/a	n/a	n/a	n/a	n/a	n/a	n/a	n/a	n/a	n/a	n/a	n/a	n/a	n/a	n/a	3.0	1.0	3.0	n/a	n/a	n/a	n/a	n/a	n/a	n/a	n/a	n/a	n/a	n/a	n/a	n/a	n/a	n/a	n/a	n/a	n/a	n/a	n/a	n/a	n/a	n/a	n/a	n/a	n/a	n/a	n/a	n/a	n/a	C3_03.jpg	500.0	0.0	428993.0	0.0	428993.0	0.0	TrialProc1	C3LowLargeEDBlockList	2500.0	0.0	426493.0	0.0	426493.0	0.0	426493.0	2500.0	d	1086.0	427579.0	139.998
143	2.5	000_R01_VA_allProc	112	1	"<?xml version=""1.0""?>\n<Clock xmlns:dt=""urn:schemas-microsoft-com:datatypes""><Description dt:dt=""string"">E-Prime Primary Realtime Clock</Description><StartTime><Timestamp dt:dt=""int"">0</Timestamp><DateUtc dt:dt=""string"">2021-08-11T14:24:16Z</DateUtc></StartTime><FrequencyChanges><FrequencyChange><Frequency dt:dt=""r8"">3020390</Frequency><Timestamp dt:dt=""r8"">4935492972584</Timestamp><Current dt:dt=""r8"">0</Current><DateUtc dt:dt=""string"">2021-08-11T14:24:16Z</DateUtc></FrequencyChange></FrequencyChanges></Clock>\n"	000_R01_VA_allProc-112-1	60.001	1.0.0.229	1	576146689	Professional	2.0.10.356	2.0.10.356	08-11-2021	8/11/2021 2:24:16 PM	10:24:16	2.0.10.252	2	0.0	0.0	286495.0	22.0	286495.0	4000.0	-999999.0	449642.0	0.0	446492.0	0.0	Run3Proc	2	1	2	RunList	6.0	LowLargeED	8000.0	1.0	438493.0	1.0	438493.0	-1.0	438492.0	0.0	C3LowLargeEDBlockProc	n/a	n/a	n/a	6.0	1.0	6.0	n/a	n/a	n/a	Run3BlockList	4.0	n/a	n/a	n/a	n/a	n/a	n/a	n/a	n/a	n/a	n/a	n/a	n/a	n/a	n/a	n/a	n/a	n/a	n/a	n/a	n/a	n/a	4.0	1.0	4.0	n/a	n/a	n/a	n/a	n/a	n/a	n/a	n/a	n/a	n/a	n/a	n/a	n/a	n/a	n/a	n/a	n/a	n/a	n/a	n/a	n/a	n/a	n/a	n/a	n/a	n/a	n/a	n/a	n/a	n/a	C3_04.jpg	500.0	0.0	431993.0	0.0	431993.0	0.0	TrialProc1	C3LowLargeEDBlockList	2500.0	0.0	429493.0	0.0	429493.0	0.0	429493.0	2500.0	d	2085.0	431578.0	142.998
146	2.5	000_R01_VA_allProc	112	1	"<?xml version=""1.0""?>\n<Clock xmlns:dt=""urn:schemas-microsoft-com:datatypes""><Description dt:dt=""string"">E-Prime Primary Realtime Clock</Description><StartTime><Timestamp dt:dt=""int"">0</Timestamp><DateUtc dt:dt=""string"">2021-08-11T14:24:16Z</DateUtc></StartTime><FrequencyChanges><FrequencyChange><Frequency dt:dt=""r8"">3020390</Frequency><Timestamp dt:dt=""r8"">4935492972584</Timestamp><Current dt:dt=""r8"">0</Current><DateUtc dt:dt=""string"">2021-08-11T14:24:16Z</DateUtc></FrequencyChange></FrequencyChanges></Clock>\n"	000_R01_VA_allProc-112-1	60.001	1.0.0.229	1	576146689	Professional	2.0.10.356	2.0.10.356	08-11-2021	8/11/2021 2:24:16 PM	10:24:16	2.0.10.252	2	0.0	0.0	286495.0	22.0	286495.0	4000.0	-999999.0	449642.0	0.0	446492.0	0.0	Run3Proc	2	1	2	RunList	6.0	LowLargeED	8000.0	1.0	438493.0	1.0	438493.0	-1.0	438492.0	0.0	C3LowLargeEDBlockProc	n/a	n/a	n/a	6.0	1.0	6.0	n/a	n/a	n/a	Run3BlockList	5.0	n/a	n/a	n/a	n/a	n/a	n/a	n/a	n/a	n/a	n/a	n/a	n/a	n/a	n/a	n/a	n/a	n/a	n/a	n/a	n/a	n/a	5.0	1.0	5.0	n/a	n/a	n/a	n/a	n/a	n/a	n/a	n/a	n/a	n/a	n/a	n/a	n/a	n/a	n/a	n/a	n/a	n/a	n/a	n/a	n/a	n/a	n/a	n/a	n/a	n/a	n/a	n/a	n/a	n/a	C3_05.jpg	500.0	0.0	434993.0	0.0	434993.0	0.0	TrialProc1	C3LowLargeEDBlockList	2500.0	0.0	432493.0	0.0	432493.0	0.0	432493.0	2500.0	d	1125.0	433618.0	145.998
149	2.5	000_R01_VA_allProc	112	1	"<?xml version=""1.0""?>\n<Clock xmlns:dt=""urn:schemas-microsoft-com:datatypes""><Description dt:dt=""string"">E-Prime Primary Realtime Clock</Description><StartTime><Timestamp dt:dt=""int"">0</Timestamp><DateUtc dt:dt=""string"">2021-08-11T14:24:16Z</DateUtc></StartTime><FrequencyChanges><FrequencyChange><Frequency dt:dt=""r8"">3020390</Frequency><Timestamp dt:dt=""r8"">4935492972584</Timestamp><Current dt:dt=""r8"">0</Current><DateUtc dt:dt=""string"">2021-08-11T14:24:16Z</DateUtc></FrequencyChange></FrequencyChanges></Clock>\n"	000_R01_VA_allProc-112-1	60.001	1.0.0.229	1	576146689	Professional	2.0.10.356	2.0.10.356	08-11-2021	8/11/2021 2:24:16 PM	10:24:16	2.0.10.252	2	0.0	0.0	286495.0	22.0	286495.0	4000.0	-999999.0	449642.0	0.0	446492.0	0.0	Run3Proc	2	1	2	RunList	6.0	LowLargeED	8000.0	1.0	438493.0	1.0	438493.0	-1.0	438492.0	0.0	C3LowLargeEDBlockProc	n/a	n/a	n/a	6.0	1.0	6.0	n/a	n/a	n/a	Run3BlockList	6.0	n/a	n/a	n/a	n/a	n/a	n/a	n/a	n/a	n/a	n/a	n/a	n/a	n/a	n/a	n/a	n/a	n/a	n/a	n/a	n/a	n/a	6.0	1.0	6.0	n/a	n/a	n/a	n/a	n/a	n/a	n/a	n/a	n/a	n/a	n/a	n/a	n/a	n/a	n/a	n/a	n/a	n/a	n/a	n/a	n/a	n/a	n/a	n/a	n/a	n/a	n/a	n/a	n/a	n/a	C3_06.jpg	500.0	0.0	437993.0	0.0	437993.0	0.0	TrialProc1	C3LowLargeEDBlockList	2500.0	0.0	435493.0	0.0	435493.0	0.0	435493.0	2500.0	d	1053.0	436546.0	148.998
