onset	duration	experiment_name	sub	ses	clock_information	datafile_basename	display_refreshrate	experiment_version	group	randomseed	runtime_capabilities	runtime_version	runtimeversionexpected	session_date	session_start_date_time_utc	session_time	studio_version	block	fixation2trs_durationerror	fixation2trs_offsetdelay	fixation2trs_offsettime	fixation2trs_onsetdelay	fixation2trs_onsettime	fixation2trs_onsettoonsettime	goodwork_durationerror	goodwork_finishtime	goodwork_onsetdelay	goodwork_onsettime	goodwork_onsettoonsettime	procedure_block	runlist	runlist_cycle	runlist_sample	running_block	trial	condition	interblockinterval_duration	interblockinterval_durationerror	interblockinterval_finishtime	interblockinterval_offsetdelay	interblockinterval_offsettime	interblockinterval_onsetdelay	interblockinterval_onsettime	interblockinterval_onsettoonsettime	procedure_trial	run1blocklist	run1blocklist_cycle	run1blocklist_sample	run2blocklist	run2blocklist_cycle	run2blocklist_sample	run3blocklist	run3blocklist_cycle	run3blocklist_sample	run4blocklist	run4blocklist_cycle	run4blocklist_sample	run5blocklist	run5blocklist_cycle	run5blocklist_sample	running_trial	subtrial	a1highlargeedblocklist	a1highlargeedblocklist_cycle	a1highlargeedblocklist_sample	a2highlargeedblocklist	a2highlargeedblocklist_cycle	a2highlargeedblocklist_sample	a3highlargeedblocklist	a3highlargeedblocklist_cycle	a3highlargeedblocklist_sample	a4highlargeedblocklist	a4highlargeedblocklist_cycle	a4highlargeedblocklist_sample	a5highlargeedblocklist	a5highlargeedblocklist_cycle	a5highlargeedblocklist_sample	b1highsmalledblocklist	b1highsmalledblocklist_cycle	b1highsmalledblocklist_sample	b2highsmalledblocklist	b2highsmalledblocklist_cycle	b2highsmalledblocklist_sample	b3highsmalledblocklist	b3highsmalledblocklist_cycle	b3highsmalledblocklist_sample	b4highsmalledblocklist	b4highsmalledblocklist_cycle	b4highsmalledblocklist_sample	b5highsmalledblocklist	b5highsmalledblocklist_cycle	b5highsmalledblocklist_sample	c1lowlargeedblocklist	c1lowlargeedblocklist_cycle	c1lowlargeedblocklist_sample	c2lowlargeedblocklist	c2lowlargeedblocklist_cycle	c2lowlargeedblocklist_sample	c3lowlargeedblocklist	c3lowlargeedblocklist_cycle	c3lowlargeedblocklist_sample	c4lowlargeedblocklist	c4lowlargeedblocklist_cycle	c4lowlargeedblocklist_sample	c5lowlargeedblocklist	c5lowlargeedblocklist_cycle	c5lowlargeedblocklist_sample	d1lowsmalledblocklist	d1lowsmalledblocklist_cycle	d1lowsmalledblocklist_sample	d2highlargeedblocklist	d2highlargeedblocklist_cycle	d2highlargeedblocklist_sample	d3lowsmalledblocklist	d3lowsmalledblocklist_cycle	d3lowsmalledblocklist_sample	d4lowsmalledblocklist	d4lowsmalledblocklist_cycle	d4lowsmalledblocklist_sample	d5lowsmalledblocklist	d5lowsmalledblocklist_cycle	d5lowsmalledblocklist_sample	e1officelargeblocklist	e1officelargeblocklist_cycle	e1officelargeblocklist_sample	e2officelargeblocklist	e2officelargeblocklist_cycle	e2officelargeblocklist_sample	e3officelargeblocklist	e3officelargeblocklist_cycle	e3officelargeblocklist_sample	e4officelargeblocklist	e4officelargeblocklist_cycle	e4officelargeblocklist_sample	e5officelargeblocklist	e5officelargeblocklist_cycle	e5officelargeblocklist_sample	f1officesmallblocklist	f1officesmallblocklist_cycle	f1officesmallblocklist_sample	f2officesmallblocklist	f2officesmallblocklist_cycle	f2officesmallblocklist_sample	f3officesmallblocklist	f3officesmallblocklist_cycle	f3officesmallblocklist_sample	f4officesmallblocklist	f4officesmallblocklist_cycle	f4officesmallblocklist_sample	f5officesmallblocklist	f5officesmallblocklist_cycle	f5officesmallblocklist_sample	filename	isi_duration	isi_durationerror	isi_finishtime	isi_onsetdelay	isi_onsettime	isi_onsettoonsettime	procedure_subtrial	running_subtrial	stimslide_duration	stimslide_durationerror	stimslide_finishtime	stimslide_offsetdelay	stimslide_offsettime	stimslide_onsetdelay	stimslide_onsettime	stimslide_onsettoonsettime	stimslide_resp	stimslide_rt	stimslide_rttime	onset_unrounded
4	2.5	Run1_VA_R01_R1proc	69	1	"<?xml version=""1.0""?>\n<Clock xmlns:dt=""urn:schemas-microsoft-com:datatypes""><Description dt:dt=""string"">E-Prime Primary Realtime Clock</Description><StartTime><Timestamp dt:dt=""int"">0</Timestamp><DateUtc dt:dt=""string"">2019-09-21T16:53:51Z</DateUtc></StartTime><FrequencyChanges><FrequencyChange><Frequency dt:dt=""r8"">3020380</Frequency><Timestamp dt:dt=""r8"">6232056266445</Timestamp><Current dt:dt=""r8"">0</Current><DateUtc dt:dt=""string"">2019-09-21T16:53:51Z</DateUtc></FrequencyChange></FrequencyChanges></Clock>\n"	Run1_VA_R01_R1proc-69-1	60.022	1.0.0.188	1	59289428	Professional	2.0.10.356	2.0.10.356	9/21/2019	9/21/2019 16:53	12:53:51	2.0.10.252	1	0	0	55931	7	55931	3999	-999999	234002	-3	215873	0	Run1Proc	1	1	1	RunList	1	HighLargeED	8000	0	77923	0	77923	0	77923	0	A1HighLargeEDBlockProc	1.0	1.0	1.0	n/a	n/a	n/a	n/a	n/a	n/a	n/a	n/a	n/a	n/a	n/a	n/a	Run1BlockList	1	1.0	1.0	1.0	n/a	n/a	n/a	n/a	n/a	n/a	n/a	n/a	n/a	n/a	n/a	n/a	n/a	n/a	n/a	n/a	n/a	n/a	n/a	n/a	n/a	n/a	n/a	n/a	n/a	n/a	n/a	n/a	n/a	n/a	n/a	n/a	n/a	n/a	n/a	n/a	n/a	n/a	n/a	n/a	n/a	n/a	n/a	n/a	n/a	n/a	n/a	n/a	n/a	n/a	n/a	n/a	n/a	n/a	n/a	n/a	n/a	n/a	n/a	n/a	n/a	n/a	n/a	n/a	n/a	n/a	n/a	n/a	n/a	n/a	n/a	n/a	n/a	n/a	n/a	n/a	n/a	n/a	n/a	n/a	n/a	n/a	n/a	n/a	n/a	n/a	n/a	A1_01.jpg	500	0	62429	-1	62429	0	TrialProc1	A1HighLargeEDBlockList	2500	0	59930	0	59930	-1	59930	2499	c	1993	61923	4.0
7	2.5	Run1_VA_R01_R1proc	69	1	"<?xml version=""1.0""?>\n<Clock xmlns:dt=""urn:schemas-microsoft-com:datatypes""><Description dt:dt=""string"">E-Prime Primary Realtime Clock</Description><StartTime><Timestamp dt:dt=""int"">0</Timestamp><DateUtc dt:dt=""string"">2019-09-21T16:53:51Z</DateUtc></StartTime><FrequencyChanges><FrequencyChange><Frequency dt:dt=""r8"">3020380</Frequency><Timestamp dt:dt=""r8"">6232056266445</Timestamp><Current dt:dt=""r8"">0</Current><DateUtc dt:dt=""string"">2019-09-21T16:53:51Z</DateUtc></FrequencyChange></FrequencyChanges></Clock>\n"	Run1_VA_R01_R1proc-69-1	60.022	1.0.0.188	1	59289428	Professional	2.0.10.356	2.0.10.356	9/21/2019	9/21/2019 16:53	12:53:51	2.0.10.252	1	0	0	55931	7	55931	3999	-999999	234002	-3	215873	0	Run1Proc	1	1	1	RunList	1	HighLargeED	8000	0	77923	0	77923	0	77923	0	A1HighLargeEDBlockProc	1.0	1.0	1.0	n/a	n/a	n/a	n/a	n/a	n/a	n/a	n/a	n/a	n/a	n/a	n/a	Run1BlockList	2	2.0	1.0	2.0	n/a	n/a	n/a	n/a	n/a	n/a	n/a	n/a	n/a	n/a	n/a	n/a	n/a	n/a	n/a	n/a	n/a	n/a	n/a	n/a	n/a	n/a	n/a	n/a	n/a	n/a	n/a	n/a	n/a	n/a	n/a	n/a	n/a	n/a	n/a	n/a	n/a	n/a	n/a	n/a	n/a	n/a	n/a	n/a	n/a	n/a	n/a	n/a	n/a	n/a	n/a	n/a	n/a	n/a	n/a	n/a	n/a	n/a	n/a	n/a	n/a	n/a	n/a	n/a	n/a	n/a	n/a	n/a	n/a	n/a	n/a	n/a	n/a	n/a	n/a	n/a	n/a	n/a	n/a	n/a	n/a	n/a	n/a	n/a	n/a	n/a	n/a	A1_02.jpg	500	0	65428	-1	65428	0	TrialProc1	A1HighLargeEDBlockList	2500	0	62929	0	62929	0	62929	2499	c	1874	64803	6.9990000000000006
10	2.5	Run1_VA_R01_R1proc	69	1	"<?xml version=""1.0""?>\n<Clock xmlns:dt=""urn:schemas-microsoft-com:datatypes""><Description dt:dt=""string"">E-Prime Primary Realtime Clock</Description><StartTime><Timestamp dt:dt=""int"">0</Timestamp><DateUtc dt:dt=""string"">2019-09-21T16:53:51Z</DateUtc></StartTime><FrequencyChanges><FrequencyChange><Frequency dt:dt=""r8"">3020380</Frequency><Timestamp dt:dt=""r8"">6232056266445</Timestamp><Current dt:dt=""r8"">0</Current><DateUtc dt:dt=""string"">2019-09-21T16:53:51Z</DateUtc></FrequencyChange></FrequencyChanges></Clock>\n"	Run1_VA_R01_R1proc-69-1	60.022	1.0.0.188	1	59289428	Professional	2.0.10.356	2.0.10.356	9/21/2019	9/21/2019 16:53	12:53:51	2.0.10.252	1	0	0	55931	7	55931	3999	-999999	234002	-3	215873	0	Run1Proc	1	1	1	RunList	1	HighLargeED	8000	0	77923	0	77923	0	77923	0	A1HighLargeEDBlockProc	1.0	1.0	1.0	n/a	n/a	n/a	n/a	n/a	n/a	n/a	n/a	n/a	n/a	n/a	n/a	Run1BlockList	3	3.0	1.0	3.0	n/a	n/a	n/a	n/a	n/a	n/a	n/a	n/a	n/a	n/a	n/a	n/a	n/a	n/a	n/a	n/a	n/a	n/a	n/a	n/a	n/a	n/a	n/a	n/a	n/a	n/a	n/a	n/a	n/a	n/a	n/a	n/a	n/a	n/a	n/a	n/a	n/a	n/a	n/a	n/a	n/a	n/a	n/a	n/a	n/a	n/a	n/a	n/a	n/a	n/a	n/a	n/a	n/a	n/a	n/a	n/a	n/a	n/a	n/a	n/a	n/a	n/a	n/a	n/a	n/a	n/a	n/a	n/a	n/a	n/a	n/a	n/a	n/a	n/a	n/a	n/a	n/a	n/a	n/a	n/a	n/a	n/a	n/a	n/a	n/a	n/a	n/a	A1_03.jpg	500	0	68427	-1	68427	0	TrialProc1	A1HighLargeEDBlockList	2500	0	65928	0	65928	0	65928	2499	d	1963	67891	9.998000000000001
13	2.5	Run1_VA_R01_R1proc	69	1	"<?xml version=""1.0""?>\n<Clock xmlns:dt=""urn:schemas-microsoft-com:datatypes""><Description dt:dt=""string"">E-Prime Primary Realtime Clock</Description><StartTime><Timestamp dt:dt=""int"">0</Timestamp><DateUtc dt:dt=""string"">2019-09-21T16:53:51Z</DateUtc></StartTime><FrequencyChanges><FrequencyChange><Frequency dt:dt=""r8"">3020380</Frequency><Timestamp dt:dt=""r8"">6232056266445</Timestamp><Current dt:dt=""r8"">0</Current><DateUtc dt:dt=""string"">2019-09-21T16:53:51Z</DateUtc></FrequencyChange></FrequencyChanges></Clock>\n"	Run1_VA_R01_R1proc-69-1	60.022	1.0.0.188	1	59289428	Professional	2.0.10.356	2.0.10.356	9/21/2019	9/21/2019 16:53	12:53:51	2.0.10.252	1	0	0	55931	7	55931	3999	-999999	234002	-3	215873	0	Run1Proc	1	1	1	RunList	1	HighLargeED	8000	0	77923	0	77923	0	77923	0	A1HighLargeEDBlockProc	1.0	1.0	1.0	n/a	n/a	n/a	n/a	n/a	n/a	n/a	n/a	n/a	n/a	n/a	n/a	Run1BlockList	4	4.0	1.0	4.0	n/a	n/a	n/a	n/a	n/a	n/a	n/a	n/a	n/a	n/a	n/a	n/a	n/a	n/a	n/a	n/a	n/a	n/a	n/a	n/a	n/a	n/a	n/a	n/a	n/a	n/a	n/a	n/a	n/a	n/a	n/a	n/a	n/a	n/a	n/a	n/a	n/a	n/a	n/a	n/a	n/a	n/a	n/a	n/a	n/a	n/a	n/a	n/a	n/a	n/a	n/a	n/a	n/a	n/a	n/a	n/a	n/a	n/a	n/a	n/a	n/a	n/a	n/a	n/a	n/a	n/a	n/a	n/a	n/a	n/a	n/a	n/a	n/a	n/a	n/a	n/a	n/a	n/a	n/a	n/a	n/a	n/a	n/a	n/a	n/a	n/a	n/a	A1_04.jpg	500	0	71426	-1	71426	0	TrialProc1	A1HighLargeEDBlockList	2500	0	68927	0	68927	0	68927	2499	c	1316	70243	12.997
16	2.5	Run1_VA_R01_R1proc	69	1	"<?xml version=""1.0""?>\n<Clock xmlns:dt=""urn:schemas-microsoft-com:datatypes""><Description dt:dt=""string"">E-Prime Primary Realtime Clock</Description><StartTime><Timestamp dt:dt=""int"">0</Timestamp><DateUtc dt:dt=""string"">2019-09-21T16:53:51Z</DateUtc></StartTime><FrequencyChanges><FrequencyChange><Frequency dt:dt=""r8"">3020380</Frequency><Timestamp dt:dt=""r8"">6232056266445</Timestamp><Current dt:dt=""r8"">0</Current><DateUtc dt:dt=""string"">2019-09-21T16:53:51Z</DateUtc></FrequencyChange></FrequencyChanges></Clock>\n"	Run1_VA_R01_R1proc-69-1	60.022	1.0.0.188	1	59289428	Professional	2.0.10.356	2.0.10.356	9/21/2019	9/21/2019 16:53	12:53:51	2.0.10.252	1	0	0	55931	7	55931	3999	-999999	234002	-3	215873	0	Run1Proc	1	1	1	RunList	1	HighLargeED	8000	0	77923	0	77923	0	77923	0	A1HighLargeEDBlockProc	1.0	1.0	1.0	n/a	n/a	n/a	n/a	n/a	n/a	n/a	n/a	n/a	n/a	n/a	n/a	Run1BlockList	5	5.0	1.0	5.0	n/a	n/a	n/a	n/a	n/a	n/a	n/a	n/a	n/a	n/a	n/a	n/a	n/a	n/a	n/a	n/a	n/a	n/a	n/a	n/a	n/a	n/a	n/a	n/a	n/a	n/a	n/a	n/a	n/a	n/a	n/a	n/a	n/a	n/a	n/a	n/a	n/a	n/a	n/a	n/a	n/a	n/a	n/a	n/a	n/a	n/a	n/a	n/a	n/a	n/a	n/a	n/a	n/a	n/a	n/a	n/a	n/a	n/a	n/a	n/a	n/a	n/a	n/a	n/a	n/a	n/a	n/a	n/a	n/a	n/a	n/a	n/a	n/a	n/a	n/a	n/a	n/a	n/a	n/a	n/a	n/a	n/a	n/a	n/a	n/a	n/a	n/a	A1_05.jpg	500	0	74425	0	74425	0	TrialProc1	A1HighLargeEDBlockList	2500	1	71926	1	71926	-1	71925	2500	d	1862	73787	15.995
19	2.5	Run1_VA_R01_R1proc	69	1	"<?xml version=""1.0""?>\n<Clock xmlns:dt=""urn:schemas-microsoft-com:datatypes""><Description dt:dt=""string"">E-Prime Primary Realtime Clock</Description><StartTime><Timestamp dt:dt=""int"">0</Timestamp><DateUtc dt:dt=""string"">2019-09-21T16:53:51Z</DateUtc></StartTime><FrequencyChanges><FrequencyChange><Frequency dt:dt=""r8"">3020380</Frequency><Timestamp dt:dt=""r8"">6232056266445</Timestamp><Current dt:dt=""r8"">0</Current><DateUtc dt:dt=""string"">2019-09-21T16:53:51Z</DateUtc></FrequencyChange></FrequencyChanges></Clock>\n"	Run1_VA_R01_R1proc-69-1	60.022	1.0.0.188	1	59289428	Professional	2.0.10.356	2.0.10.356	9/21/2019	9/21/2019 16:53	12:53:51	2.0.10.252	1	0	0	55931	7	55931	3999	-999999	234002	-3	215873	0	Run1Proc	1	1	1	RunList	1	HighLargeED	8000	0	77923	0	77923	0	77923	0	A1HighLargeEDBlockProc	1.0	1.0	1.0	n/a	n/a	n/a	n/a	n/a	n/a	n/a	n/a	n/a	n/a	n/a	n/a	Run1BlockList	6	6.0	1.0	6.0	n/a	n/a	n/a	n/a	n/a	n/a	n/a	n/a	n/a	n/a	n/a	n/a	n/a	n/a	n/a	n/a	n/a	n/a	n/a	n/a	n/a	n/a	n/a	n/a	n/a	n/a	n/a	n/a	n/a	n/a	n/a	n/a	n/a	n/a	n/a	n/a	n/a	n/a	n/a	n/a	n/a	n/a	n/a	n/a	n/a	n/a	n/a	n/a	n/a	n/a	n/a	n/a	n/a	n/a	n/a	n/a	n/a	n/a	n/a	n/a	n/a	n/a	n/a	n/a	n/a	n/a	n/a	n/a	n/a	n/a	n/a	n/a	n/a	n/a	n/a	n/a	n/a	n/a	n/a	n/a	n/a	n/a	n/a	n/a	n/a	n/a	n/a	A1_06.jpg	500	1	77424	-1	77423	0	TrialProc1	A1HighLargeEDBlockList	2500	0	74924	0	74924	-1	74924	2499	c	1439	76363	18.994
30	2.5	Run1_VA_R01_R1proc	69	1	"<?xml version=""1.0""?>\n<Clock xmlns:dt=""urn:schemas-microsoft-com:datatypes""><Description dt:dt=""string"">E-Prime Primary Realtime Clock</Description><StartTime><Timestamp dt:dt=""int"">0</Timestamp><DateUtc dt:dt=""string"">2019-09-21T16:53:51Z</DateUtc></StartTime><FrequencyChanges><FrequencyChange><Frequency dt:dt=""r8"">3020380</Frequency><Timestamp dt:dt=""r8"">6232056266445</Timestamp><Current dt:dt=""r8"">0</Current><DateUtc dt:dt=""string"">2019-09-21T16:53:51Z</DateUtc></FrequencyChange></FrequencyChanges></Clock>\n"	Run1_VA_R01_R1proc-69-1	60.022	1.0.0.188	1	59289428	Professional	2.0.10.356	2.0.10.356	9/21/2019	9/21/2019 16:53	12:53:51	2.0.10.252	1	0	0	55931	7	55931	3999	-999999	234002	-3	215873	0	Run1Proc	1	1	1	RunList	2	OfficeSmall	8000	0	103914	0	103914	0	103914	0	F1OfficeSmallBlockProc	2.0	1.0	2.0	n/a	n/a	n/a	n/a	n/a	n/a	n/a	n/a	n/a	n/a	n/a	n/a	Run1BlockList	1	n/a	n/a	n/a	n/a	n/a	n/a	n/a	n/a	n/a	n/a	n/a	n/a	n/a	n/a	n/a	n/a	n/a	n/a	n/a	n/a	n/a	n/a	n/a	n/a	n/a	n/a	n/a	n/a	n/a	n/a	n/a	n/a	n/a	n/a	n/a	n/a	n/a	n/a	n/a	n/a	n/a	n/a	n/a	n/a	n/a	n/a	n/a	n/a	n/a	n/a	n/a	n/a	n/a	n/a	n/a	n/a	n/a	n/a	n/a	n/a	n/a	n/a	n/a	n/a	n/a	n/a	n/a	n/a	n/a	n/a	n/a	n/a	n/a	n/a	n/a	1.0	1.0	1.0	n/a	n/a	n/a	n/a	n/a	n/a	n/a	n/a	n/a	n/a	n/a	n/a	F1_01.jpg	500	1	88420	-1	88419	0	TrialProc1	F1OfficeSmallBlockList	2500	0	85920	0	85920	-3	85920	2499	n/a	0	0	29.99
33	2.5	Run1_VA_R01_R1proc	69	1	"<?xml version=""1.0""?>\n<Clock xmlns:dt=""urn:schemas-microsoft-com:datatypes""><Description dt:dt=""string"">E-Prime Primary Realtime Clock</Description><StartTime><Timestamp dt:dt=""int"">0</Timestamp><DateUtc dt:dt=""string"">2019-09-21T16:53:51Z</DateUtc></StartTime><FrequencyChanges><FrequencyChange><Frequency dt:dt=""r8"">3020380</Frequency><Timestamp dt:dt=""r8"">6232056266445</Timestamp><Current dt:dt=""r8"">0</Current><DateUtc dt:dt=""string"">2019-09-21T16:53:51Z</DateUtc></FrequencyChange></FrequencyChanges></Clock>\n"	Run1_VA_R01_R1proc-69-1	60.022	1.0.0.188	1	59289428	Professional	2.0.10.356	2.0.10.356	9/21/2019	9/21/2019 16:53	12:53:51	2.0.10.252	1	0	0	55931	7	55931	3999	-999999	234002	-3	215873	0	Run1Proc	1	1	1	RunList	2	OfficeSmall	8000	0	103914	0	103914	0	103914	0	F1OfficeSmallBlockProc	2.0	1.0	2.0	n/a	n/a	n/a	n/a	n/a	n/a	n/a	n/a	n/a	n/a	n/a	n/a	Run1BlockList	2	n/a	n/a	n/a	n/a	n/a	n/a	n/a	n/a	n/a	n/a	n/a	n/a	n/a	n/a	n/a	n/a	n/a	n/a	n/a	n/a	n/a	n/a	n/a	n/a	n/a	n/a	n/a	n/a	n/a	n/a	n/a	n/a	n/a	n/a	n/a	n/a	n/a	n/a	n/a	n/a	n/a	n/a	n/a	n/a	n/a	n/a	n/a	n/a	n/a	n/a	n/a	n/a	n/a	n/a	n/a	n/a	n/a	n/a	n/a	n/a	n/a	n/a	n/a	n/a	n/a	n/a	n/a	n/a	n/a	n/a	n/a	n/a	n/a	n/a	n/a	2.0	1.0	2.0	n/a	n/a	n/a	n/a	n/a	n/a	n/a	n/a	n/a	n/a	n/a	n/a	F1_02.jpg	500	0	91418	-1	91418	0	TrialProc1	F1OfficeSmallBlockList	2500	0	88919	0	88919	0	88919	2499	n/a	0	0	32.989000000000004
36	2.5	Run1_VA_R01_R1proc	69	1	"<?xml version=""1.0""?>\n<Clock xmlns:dt=""urn:schemas-microsoft-com:datatypes""><Description dt:dt=""string"">E-Prime Primary Realtime Clock</Description><StartTime><Timestamp dt:dt=""int"">0</Timestamp><DateUtc dt:dt=""string"">2019-09-21T16:53:51Z</DateUtc></StartTime><FrequencyChanges><FrequencyChange><Frequency dt:dt=""r8"">3020380</Frequency><Timestamp dt:dt=""r8"">6232056266445</Timestamp><Current dt:dt=""r8"">0</Current><DateUtc dt:dt=""string"">2019-09-21T16:53:51Z</DateUtc></FrequencyChange></FrequencyChanges></Clock>\n"	Run1_VA_R01_R1proc-69-1	60.022	1.0.0.188	1	59289428	Professional	2.0.10.356	2.0.10.356	9/21/2019	9/21/2019 16:53	12:53:51	2.0.10.252	1	0	0	55931	7	55931	3999	-999999	234002	-3	215873	0	Run1Proc	1	1	1	RunList	2	OfficeSmall	8000	0	103914	0	103914	0	103914	0	F1OfficeSmallBlockProc	2.0	1.0	2.0	n/a	n/a	n/a	n/a	n/a	n/a	n/a	n/a	n/a	n/a	n/a	n/a	Run1BlockList	3	n/a	n/a	n/a	n/a	n/a	n/a	n/a	n/a	n/a	n/a	n/a	n/a	n/a	n/a	n/a	n/a	n/a	n/a	n/a	n/a	n/a	n/a	n/a	n/a	n/a	n/a	n/a	n/a	n/a	n/a	n/a	n/a	n/a	n/a	n/a	n/a	n/a	n/a	n/a	n/a	n/a	n/a	n/a	n/a	n/a	n/a	n/a	n/a	n/a	n/a	n/a	n/a	n/a	n/a	n/a	n/a	n/a	n/a	n/a	n/a	n/a	n/a	n/a	n/a	n/a	n/a	n/a	n/a	n/a	n/a	n/a	n/a	n/a	n/a	n/a	3.0	1.0	3.0	n/a	n/a	n/a	n/a	n/a	n/a	n/a	n/a	n/a	n/a	n/a	n/a	F1_03.jpg	500	0	94417	-1	94417	0	TrialProc1	F1OfficeSmallBlockList	2500	0	91918	0	91918	0	91918	2499	d	1925	93843	35.988
39	2.5	Run1_VA_R01_R1proc	69	1	"<?xml version=""1.0""?>\n<Clock xmlns:dt=""urn:schemas-microsoft-com:datatypes""><Description dt:dt=""string"">E-Prime Primary Realtime Clock</Description><StartTime><Timestamp dt:dt=""int"">0</Timestamp><DateUtc dt:dt=""string"">2019-09-21T16:53:51Z</DateUtc></StartTime><FrequencyChanges><FrequencyChange><Frequency dt:dt=""r8"">3020380</Frequency><Timestamp dt:dt=""r8"">6232056266445</Timestamp><Current dt:dt=""r8"">0</Current><DateUtc dt:dt=""string"">2019-09-21T16:53:51Z</DateUtc></FrequencyChange></FrequencyChanges></Clock>\n"	Run1_VA_R01_R1proc-69-1	60.022	1.0.0.188	1	59289428	Professional	2.0.10.356	2.0.10.356	9/21/2019	9/21/2019 16:53	12:53:51	2.0.10.252	1	0	0	55931	7	55931	3999	-999999	234002	-3	215873	0	Run1Proc	1	1	1	RunList	2	OfficeSmall	8000	0	103914	0	103914	0	103914	0	F1OfficeSmallBlockProc	2.0	1.0	2.0	n/a	n/a	n/a	n/a	n/a	n/a	n/a	n/a	n/a	n/a	n/a	n/a	Run1BlockList	4	n/a	n/a	n/a	n/a	n/a	n/a	n/a	n/a	n/a	n/a	n/a	n/a	n/a	n/a	n/a	n/a	n/a	n/a	n/a	n/a	n/a	n/a	n/a	n/a	n/a	n/a	n/a	n/a	n/a	n/a	n/a	n/a	n/a	n/a	n/a	n/a	n/a	n/a	n/a	n/a	n/a	n/a	n/a	n/a	n/a	n/a	n/a	n/a	n/a	n/a	n/a	n/a	n/a	n/a	n/a	n/a	n/a	n/a	n/a	n/a	n/a	n/a	n/a	n/a	n/a	n/a	n/a	n/a	n/a	n/a	n/a	n/a	n/a	n/a	n/a	4.0	1.0	4.0	n/a	n/a	n/a	n/a	n/a	n/a	n/a	n/a	n/a	n/a	n/a	n/a	F1_04.jpg	500	0	97416	-1	97416	0	TrialProc1	F1OfficeSmallBlockList	2500	0	94917	0	94917	0	94917	2499	c	1606	96523	38.987
42	2.5	Run1_VA_R01_R1proc	69	1	"<?xml version=""1.0""?>\n<Clock xmlns:dt=""urn:schemas-microsoft-com:datatypes""><Description dt:dt=""string"">E-Prime Primary Realtime Clock</Description><StartTime><Timestamp dt:dt=""int"">0</Timestamp><DateUtc dt:dt=""string"">2019-09-21T16:53:51Z</DateUtc></StartTime><FrequencyChanges><FrequencyChange><Frequency dt:dt=""r8"">3020380</Frequency><Timestamp dt:dt=""r8"">6232056266445</Timestamp><Current dt:dt=""r8"">0</Current><DateUtc dt:dt=""string"">2019-09-21T16:53:51Z</DateUtc></FrequencyChange></FrequencyChanges></Clock>\n"	Run1_VA_R01_R1proc-69-1	60.022	1.0.0.188	1	59289428	Professional	2.0.10.356	2.0.10.356	9/21/2019	9/21/2019 16:53	12:53:51	2.0.10.252	1	0	0	55931	7	55931	3999	-999999	234002	-3	215873	0	Run1Proc	1	1	1	RunList	2	OfficeSmall	8000	0	103914	0	103914	0	103914	0	F1OfficeSmallBlockProc	2.0	1.0	2.0	n/a	n/a	n/a	n/a	n/a	n/a	n/a	n/a	n/a	n/a	n/a	n/a	Run1BlockList	5	n/a	n/a	n/a	n/a	n/a	n/a	n/a	n/a	n/a	n/a	n/a	n/a	n/a	n/a	n/a	n/a	n/a	n/a	n/a	n/a	n/a	n/a	n/a	n/a	n/a	n/a	n/a	n/a	n/a	n/a	n/a	n/a	n/a	n/a	n/a	n/a	n/a	n/a	n/a	n/a	n/a	n/a	n/a	n/a	n/a	n/a	n/a	n/a	n/a	n/a	n/a	n/a	n/a	n/a	n/a	n/a	n/a	n/a	n/a	n/a	n/a	n/a	n/a	n/a	n/a	n/a	n/a	n/a	n/a	n/a	n/a	n/a	n/a	n/a	n/a	5.0	1.0	5.0	n/a	n/a	n/a	n/a	n/a	n/a	n/a	n/a	n/a	n/a	n/a	n/a	F1_05.jpg	500	0	100415	-1	100415	0	TrialProc1	F1OfficeSmallBlockList	2500	0	97916	0	97916	0	97916	2499	d	1271	99187	41.986
45	2.5	Run1_VA_R01_R1proc	69	1	"<?xml version=""1.0""?>\n<Clock xmlns:dt=""urn:schemas-microsoft-com:datatypes""><Description dt:dt=""string"">E-Prime Primary Realtime Clock</Description><StartTime><Timestamp dt:dt=""int"">0</Timestamp><DateUtc dt:dt=""string"">2019-09-21T16:53:51Z</DateUtc></StartTime><FrequencyChanges><FrequencyChange><Frequency dt:dt=""r8"">3020380</Frequency><Timestamp dt:dt=""r8"">6232056266445</Timestamp><Current dt:dt=""r8"">0</Current><DateUtc dt:dt=""string"">2019-09-21T16:53:51Z</DateUtc></FrequencyChange></FrequencyChanges></Clock>\n"	Run1_VA_R01_R1proc-69-1	60.022	1.0.0.188	1	59289428	Professional	2.0.10.356	2.0.10.356	9/21/2019	9/21/2019 16:53	12:53:51	2.0.10.252	1	0	0	55931	7	55931	3999	-999999	234002	-3	215873	0	Run1Proc	1	1	1	RunList	2	OfficeSmall	8000	0	103914	0	103914	0	103914	0	F1OfficeSmallBlockProc	2.0	1.0	2.0	n/a	n/a	n/a	n/a	n/a	n/a	n/a	n/a	n/a	n/a	n/a	n/a	Run1BlockList	6	n/a	n/a	n/a	n/a	n/a	n/a	n/a	n/a	n/a	n/a	n/a	n/a	n/a	n/a	n/a	n/a	n/a	n/a	n/a	n/a	n/a	n/a	n/a	n/a	n/a	n/a	n/a	n/a	n/a	n/a	n/a	n/a	n/a	n/a	n/a	n/a	n/a	n/a	n/a	n/a	n/a	n/a	n/a	n/a	n/a	n/a	n/a	n/a	n/a	n/a	n/a	n/a	n/a	n/a	n/a	n/a	n/a	n/a	n/a	n/a	n/a	n/a	n/a	n/a	n/a	n/a	n/a	n/a	n/a	n/a	n/a	n/a	n/a	n/a	n/a	6.0	1.0	6.0	n/a	n/a	n/a	n/a	n/a	n/a	n/a	n/a	n/a	n/a	n/a	n/a	F1_06.jpg	500	0	103414	-1	103414	0	TrialProc1	F1OfficeSmallBlockList	2500	0	100915	0	100915	0	100915	2499	c	1472	102387	44.985
56	2.5	Run1_VA_R01_R1proc	69	1	"<?xml version=""1.0""?>\n<Clock xmlns:dt=""urn:schemas-microsoft-com:datatypes""><Description dt:dt=""string"">E-Prime Primary Realtime Clock</Description><StartTime><Timestamp dt:dt=""int"">0</Timestamp><DateUtc dt:dt=""string"">2019-09-21T16:53:51Z</DateUtc></StartTime><FrequencyChanges><FrequencyChange><Frequency dt:dt=""r8"">3020380</Frequency><Timestamp dt:dt=""r8"">6232056266445</Timestamp><Current dt:dt=""r8"">0</Current><DateUtc dt:dt=""string"">2019-09-21T16:53:51Z</DateUtc></FrequencyChange></FrequencyChanges></Clock>\n"	Run1_VA_R01_R1proc-69-1	60.022	1.0.0.188	1	59289428	Professional	2.0.10.356	2.0.10.356	9/21/2019	9/21/2019 16:53	12:53:51	2.0.10.252	1	0	0	55931	7	55931	3999	-999999	234002	-3	215873	0	Run1Proc	1	1	1	RunList	3	LowLargeED	8000	1	129905	1	129905	-1	129904	0	C1LowLargeEDBlockProc	3.0	1.0	3.0	n/a	n/a	n/a	n/a	n/a	n/a	n/a	n/a	n/a	n/a	n/a	n/a	Run1BlockList	1	n/a	n/a	n/a	n/a	n/a	n/a	n/a	n/a	n/a	n/a	n/a	n/a	n/a	n/a	n/a	n/a	n/a	n/a	n/a	n/a	n/a	n/a	n/a	n/a	n/a	n/a	n/a	n/a	n/a	n/a	1.0	1.0	1.0	n/a	n/a	n/a	n/a	n/a	n/a	n/a	n/a	n/a	n/a	n/a	n/a	n/a	n/a	n/a	n/a	n/a	n/a	n/a	n/a	n/a	n/a	n/a	n/a	n/a	n/a	n/a	n/a	n/a	n/a	n/a	n/a	n/a	n/a	n/a	n/a	n/a	n/a	n/a	n/a	n/a	n/a	n/a	n/a	n/a	n/a	n/a	n/a	n/a	n/a	n/a	n/a	n/a	n/a	n/a	n/a	n/a	C1_01.jpg	500	0	114410	-1	114410	0	TrialProc1	C1LowLargeEDBlockList	2500	0	111911	0	111911	-3	111911	2499	d	2380	114291	55.981
59	2.5	Run1_VA_R01_R1proc	69	1	"<?xml version=""1.0""?>\n<Clock xmlns:dt=""urn:schemas-microsoft-com:datatypes""><Description dt:dt=""string"">E-Prime Primary Realtime Clock</Description><StartTime><Timestamp dt:dt=""int"">0</Timestamp><DateUtc dt:dt=""string"">2019-09-21T16:53:51Z</DateUtc></StartTime><FrequencyChanges><FrequencyChange><Frequency dt:dt=""r8"">3020380</Frequency><Timestamp dt:dt=""r8"">6232056266445</Timestamp><Current dt:dt=""r8"">0</Current><DateUtc dt:dt=""string"">2019-09-21T16:53:51Z</DateUtc></FrequencyChange></FrequencyChanges></Clock>\n"	Run1_VA_R01_R1proc-69-1	60.022	1.0.0.188	1	59289428	Professional	2.0.10.356	2.0.10.356	9/21/2019	9/21/2019 16:53	12:53:51	2.0.10.252	1	0	0	55931	7	55931	3999	-999999	234002	-3	215873	0	Run1Proc	1	1	1	RunList	3	LowLargeED	8000	1	129905	1	129905	-1	129904	0	C1LowLargeEDBlockProc	3.0	1.0	3.0	n/a	n/a	n/a	n/a	n/a	n/a	n/a	n/a	n/a	n/a	n/a	n/a	Run1BlockList	2	n/a	n/a	n/a	n/a	n/a	n/a	n/a	n/a	n/a	n/a	n/a	n/a	n/a	n/a	n/a	n/a	n/a	n/a	n/a	n/a	n/a	n/a	n/a	n/a	n/a	n/a	n/a	n/a	n/a	n/a	2.0	1.0	2.0	n/a	n/a	n/a	n/a	n/a	n/a	n/a	n/a	n/a	n/a	n/a	n/a	n/a	n/a	n/a	n/a	n/a	n/a	n/a	n/a	n/a	n/a	n/a	n/a	n/a	n/a	n/a	n/a	n/a	n/a	n/a	n/a	n/a	n/a	n/a	n/a	n/a	n/a	n/a	n/a	n/a	n/a	n/a	n/a	n/a	n/a	n/a	n/a	n/a	n/a	n/a	n/a	n/a	n/a	n/a	n/a	n/a	C1_02.jpg	500	0	117409	-1	117409	0	TrialProc1	C1LowLargeEDBlockList	2500	0	114910	0	114910	0	114910	2499	d	1357	116267	58.98
62	2.5	Run1_VA_R01_R1proc	69	1	"<?xml version=""1.0""?>\n<Clock xmlns:dt=""urn:schemas-microsoft-com:datatypes""><Description dt:dt=""string"">E-Prime Primary Realtime Clock</Description><StartTime><Timestamp dt:dt=""int"">0</Timestamp><DateUtc dt:dt=""string"">2019-09-21T16:53:51Z</DateUtc></StartTime><FrequencyChanges><FrequencyChange><Frequency dt:dt=""r8"">3020380</Frequency><Timestamp dt:dt=""r8"">6232056266445</Timestamp><Current dt:dt=""r8"">0</Current><DateUtc dt:dt=""string"">2019-09-21T16:53:51Z</DateUtc></FrequencyChange></FrequencyChanges></Clock>\n"	Run1_VA_R01_R1proc-69-1	60.022	1.0.0.188	1	59289428	Professional	2.0.10.356	2.0.10.356	9/21/2019	9/21/2019 16:53	12:53:51	2.0.10.252	1	0	0	55931	7	55931	3999	-999999	234002	-3	215873	0	Run1Proc	1	1	1	RunList	3	LowLargeED	8000	1	129905	1	129905	-1	129904	0	C1LowLargeEDBlockProc	3.0	1.0	3.0	n/a	n/a	n/a	n/a	n/a	n/a	n/a	n/a	n/a	n/a	n/a	n/a	Run1BlockList	3	n/a	n/a	n/a	n/a	n/a	n/a	n/a	n/a	n/a	n/a	n/a	n/a	n/a	n/a	n/a	n/a	n/a	n/a	n/a	n/a	n/a	n/a	n/a	n/a	n/a	n/a	n/a	n/a	n/a	n/a	3.0	1.0	3.0	n/a	n/a	n/a	n/a	n/a	n/a	n/a	n/a	n/a	n/a	n/a	n/a	n/a	n/a	n/a	n/a	n/a	n/a	n/a	n/a	n/a	n/a	n/a	n/a	n/a	n/a	n/a	n/a	n/a	n/a	n/a	n/a	n/a	n/a	n/a	n/a	n/a	n/a	n/a	n/a	n/a	n/a	n/a	n/a	n/a	n/a	n/a	n/a	n/a	n/a	n/a	n/a	n/a	n/a	n/a	n/a	n/a	C1_03.jpg	500	0	120408	-1	120408	0	TrialProc1	C1LowLargeEDBlockList	2500	0	117909	0	117909	0	117909	2499	d	1174	119083	61.979
65	2.5	Run1_VA_R01_R1proc	69	1	"<?xml version=""1.0""?>\n<Clock xmlns:dt=""urn:schemas-microsoft-com:datatypes""><Description dt:dt=""string"">E-Prime Primary Realtime Clock</Description><StartTime><Timestamp dt:dt=""int"">0</Timestamp><DateUtc dt:dt=""string"">2019-09-21T16:53:51Z</DateUtc></StartTime><FrequencyChanges><FrequencyChange><Frequency dt:dt=""r8"">3020380</Frequency><Timestamp dt:dt=""r8"">6232056266445</Timestamp><Current dt:dt=""r8"">0</Current><DateUtc dt:dt=""string"">2019-09-21T16:53:51Z</DateUtc></FrequencyChange></FrequencyChanges></Clock>\n"	Run1_VA_R01_R1proc-69-1	60.022	1.0.0.188	1	59289428	Professional	2.0.10.356	2.0.10.356	9/21/2019	9/21/2019 16:53	12:53:51	2.0.10.252	1	0	0	55931	7	55931	3999	-999999	234002	-3	215873	0	Run1Proc	1	1	1	RunList	3	LowLargeED	8000	1	129905	1	129905	-1	129904	0	C1LowLargeEDBlockProc	3.0	1.0	3.0	n/a	n/a	n/a	n/a	n/a	n/a	n/a	n/a	n/a	n/a	n/a	n/a	Run1BlockList	4	n/a	n/a	n/a	n/a	n/a	n/a	n/a	n/a	n/a	n/a	n/a	n/a	n/a	n/a	n/a	n/a	n/a	n/a	n/a	n/a	n/a	n/a	n/a	n/a	n/a	n/a	n/a	n/a	n/a	n/a	4.0	1.0	4.0	n/a	n/a	n/a	n/a	n/a	n/a	n/a	n/a	n/a	n/a	n/a	n/a	n/a	n/a	n/a	n/a	n/a	n/a	n/a	n/a	n/a	n/a	n/a	n/a	n/a	n/a	n/a	n/a	n/a	n/a	n/a	n/a	n/a	n/a	n/a	n/a	n/a	n/a	n/a	n/a	n/a	n/a	n/a	n/a	n/a	n/a	n/a	n/a	n/a	n/a	n/a	n/a	n/a	n/a	n/a	n/a	n/a	C1_04.jpg	500	0	123407	-1	123407	0	TrialProc1	C1LowLargeEDBlockList	2500	0	120908	0	120908	0	120908	2499	d	1463	122371	64.97800000000001
68	2.5	Run1_VA_R01_R1proc	69	1	"<?xml version=""1.0""?>\n<Clock xmlns:dt=""urn:schemas-microsoft-com:datatypes""><Description dt:dt=""string"">E-Prime Primary Realtime Clock</Description><StartTime><Timestamp dt:dt=""int"">0</Timestamp><DateUtc dt:dt=""string"">2019-09-21T16:53:51Z</DateUtc></StartTime><FrequencyChanges><FrequencyChange><Frequency dt:dt=""r8"">3020380</Frequency><Timestamp dt:dt=""r8"">6232056266445</Timestamp><Current dt:dt=""r8"">0</Current><DateUtc dt:dt=""string"">2019-09-21T16:53:51Z</DateUtc></FrequencyChange></FrequencyChanges></Clock>\n"	Run1_VA_R01_R1proc-69-1	60.022	1.0.0.188	1	59289428	Professional	2.0.10.356	2.0.10.356	9/21/2019	9/21/2019 16:53	12:53:51	2.0.10.252	1	0	0	55931	7	55931	3999	-999999	234002	-3	215873	0	Run1Proc	1	1	1	RunList	3	LowLargeED	8000	1	129905	1	129905	-1	129904	0	C1LowLargeEDBlockProc	3.0	1.0	3.0	n/a	n/a	n/a	n/a	n/a	n/a	n/a	n/a	n/a	n/a	n/a	n/a	Run1BlockList	5	n/a	n/a	n/a	n/a	n/a	n/a	n/a	n/a	n/a	n/a	n/a	n/a	n/a	n/a	n/a	n/a	n/a	n/a	n/a	n/a	n/a	n/a	n/a	n/a	n/a	n/a	n/a	n/a	n/a	n/a	5.0	1.0	5.0	n/a	n/a	n/a	n/a	n/a	n/a	n/a	n/a	n/a	n/a	n/a	n/a	n/a	n/a	n/a	n/a	n/a	n/a	n/a	n/a	n/a	n/a	n/a	n/a	n/a	n/a	n/a	n/a	n/a	n/a	n/a	n/a	n/a	n/a	n/a	n/a	n/a	n/a	n/a	n/a	n/a	n/a	n/a	n/a	n/a	n/a	n/a	n/a	n/a	n/a	n/a	n/a	n/a	n/a	n/a	n/a	n/a	C1_05.jpg	500	0	126406	-1	126406	0	TrialProc1	C1LowLargeEDBlockList	2500	0	123907	0	123907	0	123907	2499	c	1376	125283	67.977
71	2.5	Run1_VA_R01_R1proc	69	1	"<?xml version=""1.0""?>\n<Clock xmlns:dt=""urn:schemas-microsoft-com:datatypes""><Description dt:dt=""string"">E-Prime Primary Realtime Clock</Description><StartTime><Timestamp dt:dt=""int"">0</Timestamp><DateUtc dt:dt=""string"">2019-09-21T16:53:51Z</DateUtc></StartTime><FrequencyChanges><FrequencyChange><Frequency dt:dt=""r8"">3020380</Frequency><Timestamp dt:dt=""r8"">6232056266445</Timestamp><Current dt:dt=""r8"">0</Current><DateUtc dt:dt=""string"">2019-09-21T16:53:51Z</DateUtc></FrequencyChange></FrequencyChanges></Clock>\n"	Run1_VA_R01_R1proc-69-1	60.022	1.0.0.188	1	59289428	Professional	2.0.10.356	2.0.10.356	9/21/2019	9/21/2019 16:53	12:53:51	2.0.10.252	1	0	0	55931	7	55931	3999	-999999	234002	-3	215873	0	Run1Proc	1	1	1	RunList	3	LowLargeED	8000	1	129905	1	129905	-1	129904	0	C1LowLargeEDBlockProc	3.0	1.0	3.0	n/a	n/a	n/a	n/a	n/a	n/a	n/a	n/a	n/a	n/a	n/a	n/a	Run1BlockList	6	n/a	n/a	n/a	n/a	n/a	n/a	n/a	n/a	n/a	n/a	n/a	n/a	n/a	n/a	n/a	n/a	n/a	n/a	n/a	n/a	n/a	n/a	n/a	n/a	n/a	n/a	n/a	n/a	n/a	n/a	6.0	1.0	6.0	n/a	n/a	n/a	n/a	n/a	n/a	n/a	n/a	n/a	n/a	n/a	n/a	n/a	n/a	n/a	n/a	n/a	n/a	n/a	n/a	n/a	n/a	n/a	n/a	n/a	n/a	n/a	n/a	n/a	n/a	n/a	n/a	n/a	n/a	n/a	n/a	n/a	n/a	n/a	n/a	n/a	n/a	n/a	n/a	n/a	n/a	n/a	n/a	n/a	n/a	n/a	n/a	n/a	n/a	n/a	n/a	n/a	C1_06.jpg	500	0	129405	-1	129405	0	TrialProc1	C1LowLargeEDBlockList	2500	0	126906	0	126906	0	126906	2499	c	2209	129115	70.976
82	2.5	Run1_VA_R01_R1proc	69	1	"<?xml version=""1.0""?>\n<Clock xmlns:dt=""urn:schemas-microsoft-com:datatypes""><Description dt:dt=""string"">E-Prime Primary Realtime Clock</Description><StartTime><Timestamp dt:dt=""int"">0</Timestamp><DateUtc dt:dt=""string"">2019-09-21T16:53:51Z</DateUtc></StartTime><FrequencyChanges><FrequencyChange><Frequency dt:dt=""r8"">3020380</Frequency><Timestamp dt:dt=""r8"">6232056266445</Timestamp><Current dt:dt=""r8"">0</Current><DateUtc dt:dt=""string"">2019-09-21T16:53:51Z</DateUtc></FrequencyChange></FrequencyChanges></Clock>\n"	Run1_VA_R01_R1proc-69-1	60.022	1.0.0.188	1	59289428	Professional	2.0.10.356	2.0.10.356	9/21/2019	9/21/2019 16:53	12:53:51	2.0.10.252	1	0	0	55931	7	55931	3999	-999999	234002	-3	215873	0	Run1Proc	1	1	1	RunList	4	LowSmallED	8000	0	155895	0	155895	0	155895	0	D1LowSmallEDBlockProc	4.0	1.0	4.0	n/a	n/a	n/a	n/a	n/a	n/a	n/a	n/a	n/a	n/a	n/a	n/a	Run1BlockList	1	n/a	n/a	n/a	n/a	n/a	n/a	n/a	n/a	n/a	n/a	n/a	n/a	n/a	n/a	n/a	n/a	n/a	n/a	n/a	n/a	n/a	n/a	n/a	n/a	n/a	n/a	n/a	n/a	n/a	n/a	n/a	n/a	n/a	n/a	n/a	n/a	n/a	n/a	n/a	n/a	n/a	n/a	n/a	n/a	n/a	1.0	1.0	1.0	n/a	n/a	n/a	n/a	n/a	n/a	n/a	n/a	n/a	n/a	n/a	n/a	n/a	n/a	n/a	n/a	n/a	n/a	n/a	n/a	n/a	n/a	n/a	n/a	n/a	n/a	n/a	n/a	n/a	n/a	n/a	n/a	n/a	n/a	n/a	n/a	n/a	n/a	n/a	n/a	n/a	n/a	D1_01.jpg	500	0	140401	-1	140401	0	TrialProc1	D1LowSmallEDBlockList	2500	0	137902	0	137902	-2	137902	2499	c	1557	139459	81.972
85	2.5	Run1_VA_R01_R1proc	69	1	"<?xml version=""1.0""?>\n<Clock xmlns:dt=""urn:schemas-microsoft-com:datatypes""><Description dt:dt=""string"">E-Prime Primary Realtime Clock</Description><StartTime><Timestamp dt:dt=""int"">0</Timestamp><DateUtc dt:dt=""string"">2019-09-21T16:53:51Z</DateUtc></StartTime><FrequencyChanges><FrequencyChange><Frequency dt:dt=""r8"">3020380</Frequency><Timestamp dt:dt=""r8"">6232056266445</Timestamp><Current dt:dt=""r8"">0</Current><DateUtc dt:dt=""string"">2019-09-21T16:53:51Z</DateUtc></FrequencyChange></FrequencyChanges></Clock>\n"	Run1_VA_R01_R1proc-69-1	60.022	1.0.0.188	1	59289428	Professional	2.0.10.356	2.0.10.356	9/21/2019	9/21/2019 16:53	12:53:51	2.0.10.252	1	0	0	55931	7	55931	3999	-999999	234002	-3	215873	0	Run1Proc	1	1	1	RunList	4	LowSmallED	8000	0	155895	0	155895	0	155895	0	D1LowSmallEDBlockProc	4.0	1.0	4.0	n/a	n/a	n/a	n/a	n/a	n/a	n/a	n/a	n/a	n/a	n/a	n/a	Run1BlockList	2	n/a	n/a	n/a	n/a	n/a	n/a	n/a	n/a	n/a	n/a	n/a	n/a	n/a	n/a	n/a	n/a	n/a	n/a	n/a	n/a	n/a	n/a	n/a	n/a	n/a	n/a	n/a	n/a	n/a	n/a	n/a	n/a	n/a	n/a	n/a	n/a	n/a	n/a	n/a	n/a	n/a	n/a	n/a	n/a	n/a	2.0	1.0	2.0	n/a	n/a	n/a	n/a	n/a	n/a	n/a	n/a	n/a	n/a	n/a	n/a	n/a	n/a	n/a	n/a	n/a	n/a	n/a	n/a	n/a	n/a	n/a	n/a	n/a	n/a	n/a	n/a	n/a	n/a	n/a	n/a	n/a	n/a	n/a	n/a	n/a	n/a	n/a	n/a	n/a	n/a	D1_02.jpg	500	0	143400	0	143400	0	TrialProc1	D1LowSmallEDBlockList	2500	1	140901	1	140901	-1	140900	2500	c	1943	142843	84.97
88	2.5	Run1_VA_R01_R1proc	69	1	"<?xml version=""1.0""?>\n<Clock xmlns:dt=""urn:schemas-microsoft-com:datatypes""><Description dt:dt=""string"">E-Prime Primary Realtime Clock</Description><StartTime><Timestamp dt:dt=""int"">0</Timestamp><DateUtc dt:dt=""string"">2019-09-21T16:53:51Z</DateUtc></StartTime><FrequencyChanges><FrequencyChange><Frequency dt:dt=""r8"">3020380</Frequency><Timestamp dt:dt=""r8"">6232056266445</Timestamp><Current dt:dt=""r8"">0</Current><DateUtc dt:dt=""string"">2019-09-21T16:53:51Z</DateUtc></FrequencyChange></FrequencyChanges></Clock>\n"	Run1_VA_R01_R1proc-69-1	60.022	1.0.0.188	1	59289428	Professional	2.0.10.356	2.0.10.356	9/21/2019	9/21/2019 16:53	12:53:51	2.0.10.252	1	0	0	55931	7	55931	3999	-999999	234002	-3	215873	0	Run1Proc	1	1	1	RunList	4	LowSmallED	8000	0	155895	0	155895	0	155895	0	D1LowSmallEDBlockProc	4.0	1.0	4.0	n/a	n/a	n/a	n/a	n/a	n/a	n/a	n/a	n/a	n/a	n/a	n/a	Run1BlockList	3	n/a	n/a	n/a	n/a	n/a	n/a	n/a	n/a	n/a	n/a	n/a	n/a	n/a	n/a	n/a	n/a	n/a	n/a	n/a	n/a	n/a	n/a	n/a	n/a	n/a	n/a	n/a	n/a	n/a	n/a	n/a	n/a	n/a	n/a	n/a	n/a	n/a	n/a	n/a	n/a	n/a	n/a	n/a	n/a	n/a	3.0	1.0	3.0	n/a	n/a	n/a	n/a	n/a	n/a	n/a	n/a	n/a	n/a	n/a	n/a	n/a	n/a	n/a	n/a	n/a	n/a	n/a	n/a	n/a	n/a	n/a	n/a	n/a	n/a	n/a	n/a	n/a	n/a	n/a	n/a	n/a	n/a	n/a	n/a	n/a	n/a	n/a	n/a	n/a	n/a	D1_03.jpg	500	1	146399	-1	146398	0	TrialProc1	D1LowSmallEDBlockList	2500	0	143899	0	143899	-1	143899	2499	c	1864	145763	87.969
91	2.5	Run1_VA_R01_R1proc	69	1	"<?xml version=""1.0""?>\n<Clock xmlns:dt=""urn:schemas-microsoft-com:datatypes""><Description dt:dt=""string"">E-Prime Primary Realtime Clock</Description><StartTime><Timestamp dt:dt=""int"">0</Timestamp><DateUtc dt:dt=""string"">2019-09-21T16:53:51Z</DateUtc></StartTime><FrequencyChanges><FrequencyChange><Frequency dt:dt=""r8"">3020380</Frequency><Timestamp dt:dt=""r8"">6232056266445</Timestamp><Current dt:dt=""r8"">0</Current><DateUtc dt:dt=""string"">2019-09-21T16:53:51Z</DateUtc></FrequencyChange></FrequencyChanges></Clock>\n"	Run1_VA_R01_R1proc-69-1	60.022	1.0.0.188	1	59289428	Professional	2.0.10.356	2.0.10.356	9/21/2019	9/21/2019 16:53	12:53:51	2.0.10.252	1	0	0	55931	7	55931	3999	-999999	234002	-3	215873	0	Run1Proc	1	1	1	RunList	4	LowSmallED	8000	0	155895	0	155895	0	155895	0	D1LowSmallEDBlockProc	4.0	1.0	4.0	n/a	n/a	n/a	n/a	n/a	n/a	n/a	n/a	n/a	n/a	n/a	n/a	Run1BlockList	4	n/a	n/a	n/a	n/a	n/a	n/a	n/a	n/a	n/a	n/a	n/a	n/a	n/a	n/a	n/a	n/a	n/a	n/a	n/a	n/a	n/a	n/a	n/a	n/a	n/a	n/a	n/a	n/a	n/a	n/a	n/a	n/a	n/a	n/a	n/a	n/a	n/a	n/a	n/a	n/a	n/a	n/a	n/a	n/a	n/a	4.0	1.0	4.0	n/a	n/a	n/a	n/a	n/a	n/a	n/a	n/a	n/a	n/a	n/a	n/a	n/a	n/a	n/a	n/a	n/a	n/a	n/a	n/a	n/a	n/a	n/a	n/a	n/a	n/a	n/a	n/a	n/a	n/a	n/a	n/a	n/a	n/a	n/a	n/a	n/a	n/a	n/a	n/a	n/a	n/a	D1_04.jpg	500	0	149397	-1	149397	0	TrialProc1	D1LowSmallEDBlockList	2500	0	146898	0	146898	0	146898	2499	d	1185	148083	90.968
94	2.5	Run1_VA_R01_R1proc	69	1	"<?xml version=""1.0""?>\n<Clock xmlns:dt=""urn:schemas-microsoft-com:datatypes""><Description dt:dt=""string"">E-Prime Primary Realtime Clock</Description><StartTime><Timestamp dt:dt=""int"">0</Timestamp><DateUtc dt:dt=""string"">2019-09-21T16:53:51Z</DateUtc></StartTime><FrequencyChanges><FrequencyChange><Frequency dt:dt=""r8"">3020380</Frequency><Timestamp dt:dt=""r8"">6232056266445</Timestamp><Current dt:dt=""r8"">0</Current><DateUtc dt:dt=""string"">2019-09-21T16:53:51Z</DateUtc></FrequencyChange></FrequencyChanges></Clock>\n"	Run1_VA_R01_R1proc-69-1	60.022	1.0.0.188	1	59289428	Professional	2.0.10.356	2.0.10.356	9/21/2019	9/21/2019 16:53	12:53:51	2.0.10.252	1	0	0	55931	7	55931	3999	-999999	234002	-3	215873	0	Run1Proc	1	1	1	RunList	4	LowSmallED	8000	0	155895	0	155895	0	155895	0	D1LowSmallEDBlockProc	4.0	1.0	4.0	n/a	n/a	n/a	n/a	n/a	n/a	n/a	n/a	n/a	n/a	n/a	n/a	Run1BlockList	5	n/a	n/a	n/a	n/a	n/a	n/a	n/a	n/a	n/a	n/a	n/a	n/a	n/a	n/a	n/a	n/a	n/a	n/a	n/a	n/a	n/a	n/a	n/a	n/a	n/a	n/a	n/a	n/a	n/a	n/a	n/a	n/a	n/a	n/a	n/a	n/a	n/a	n/a	n/a	n/a	n/a	n/a	n/a	n/a	n/a	5.0	1.0	5.0	n/a	n/a	n/a	n/a	n/a	n/a	n/a	n/a	n/a	n/a	n/a	n/a	n/a	n/a	n/a	n/a	n/a	n/a	n/a	n/a	n/a	n/a	n/a	n/a	n/a	n/a	n/a	n/a	n/a	n/a	n/a	n/a	n/a	n/a	n/a	n/a	n/a	n/a	n/a	n/a	n/a	n/a	D1_05.jpg	500	0	152396	-1	152396	0	TrialProc1	D1LowSmallEDBlockList	2500	0	149897	0	149897	0	149897	2499	d	2081	151978	93.967
97	2.5	Run1_VA_R01_R1proc	69	1	"<?xml version=""1.0""?>\n<Clock xmlns:dt=""urn:schemas-microsoft-com:datatypes""><Description dt:dt=""string"">E-Prime Primary Realtime Clock</Description><StartTime><Timestamp dt:dt=""int"">0</Timestamp><DateUtc dt:dt=""string"">2019-09-21T16:53:51Z</DateUtc></StartTime><FrequencyChanges><FrequencyChange><Frequency dt:dt=""r8"">3020380</Frequency><Timestamp dt:dt=""r8"">6232056266445</Timestamp><Current dt:dt=""r8"">0</Current><DateUtc dt:dt=""string"">2019-09-21T16:53:51Z</DateUtc></FrequencyChange></FrequencyChanges></Clock>\n"	Run1_VA_R01_R1proc-69-1	60.022	1.0.0.188	1	59289428	Professional	2.0.10.356	2.0.10.356	9/21/2019	9/21/2019 16:53	12:53:51	2.0.10.252	1	0	0	55931	7	55931	3999	-999999	234002	-3	215873	0	Run1Proc	1	1	1	RunList	4	LowSmallED	8000	0	155895	0	155895	0	155895	0	D1LowSmallEDBlockProc	4.0	1.0	4.0	n/a	n/a	n/a	n/a	n/a	n/a	n/a	n/a	n/a	n/a	n/a	n/a	Run1BlockList	6	n/a	n/a	n/a	n/a	n/a	n/a	n/a	n/a	n/a	n/a	n/a	n/a	n/a	n/a	n/a	n/a	n/a	n/a	n/a	n/a	n/a	n/a	n/a	n/a	n/a	n/a	n/a	n/a	n/a	n/a	n/a	n/a	n/a	n/a	n/a	n/a	n/a	n/a	n/a	n/a	n/a	n/a	n/a	n/a	n/a	6.0	1.0	6.0	n/a	n/a	n/a	n/a	n/a	n/a	n/a	n/a	n/a	n/a	n/a	n/a	n/a	n/a	n/a	n/a	n/a	n/a	n/a	n/a	n/a	n/a	n/a	n/a	n/a	n/a	n/a	n/a	n/a	n/a	n/a	n/a	n/a	n/a	n/a	n/a	n/a	n/a	n/a	n/a	n/a	n/a	D1_06.jpg	500	0	155395	-1	155395	0	TrialProc1	D1LowSmallEDBlockList	2500	0	152896	0	152896	0	152896	2499	c	1906	154802	96.966
108	2.5	Run1_VA_R01_R1proc	69	1	"<?xml version=""1.0""?>\n<Clock xmlns:dt=""urn:schemas-microsoft-com:datatypes""><Description dt:dt=""string"">E-Prime Primary Realtime Clock</Description><StartTime><Timestamp dt:dt=""int"">0</Timestamp><DateUtc dt:dt=""string"">2019-09-21T16:53:51Z</DateUtc></StartTime><FrequencyChanges><FrequencyChange><Frequency dt:dt=""r8"">3020380</Frequency><Timestamp dt:dt=""r8"">6232056266445</Timestamp><Current dt:dt=""r8"">0</Current><DateUtc dt:dt=""string"">2019-09-21T16:53:51Z</DateUtc></FrequencyChange></FrequencyChanges></Clock>\n"	Run1_VA_R01_R1proc-69-1	60.022	1.0.0.188	1	59289428	Professional	2.0.10.356	2.0.10.356	9/21/2019	9/21/2019 16:53	12:53:51	2.0.10.252	1	0	0	55931	7	55931	3999	-999999	234002	-3	215873	0	Run1Proc	1	1	1	RunList	5	OfficeLarge	8000	0	181886	0	181886	0	181886	0	E1OfficeLargeBlockProc	5.0	1.0	5.0	n/a	n/a	n/a	n/a	n/a	n/a	n/a	n/a	n/a	n/a	n/a	n/a	Run1BlockList	1	n/a	n/a	n/a	n/a	n/a	n/a	n/a	n/a	n/a	n/a	n/a	n/a	n/a	n/a	n/a	n/a	n/a	n/a	n/a	n/a	n/a	n/a	n/a	n/a	n/a	n/a	n/a	n/a	n/a	n/a	n/a	n/a	n/a	n/a	n/a	n/a	n/a	n/a	n/a	n/a	n/a	n/a	n/a	n/a	n/a	n/a	n/a	n/a	n/a	n/a	n/a	n/a	n/a	n/a	n/a	n/a	n/a	n/a	n/a	n/a	1.0	1.0	1.0	n/a	n/a	n/a	n/a	n/a	n/a	n/a	n/a	n/a	n/a	n/a	n/a	n/a	n/a	n/a	n/a	n/a	n/a	n/a	n/a	n/a	n/a	n/a	n/a	n/a	n/a	n/a	E1_01.jpg	500	0	166391	-1	166391	0	TrialProc1	E1OfficeLargeBlockList	2500	0	163892	0	163892	-3	163892	2499	n/a	0	0	107.962
111	2.5	Run1_VA_R01_R1proc	69	1	"<?xml version=""1.0""?>\n<Clock xmlns:dt=""urn:schemas-microsoft-com:datatypes""><Description dt:dt=""string"">E-Prime Primary Realtime Clock</Description><StartTime><Timestamp dt:dt=""int"">0</Timestamp><DateUtc dt:dt=""string"">2019-09-21T16:53:51Z</DateUtc></StartTime><FrequencyChanges><FrequencyChange><Frequency dt:dt=""r8"">3020380</Frequency><Timestamp dt:dt=""r8"">6232056266445</Timestamp><Current dt:dt=""r8"">0</Current><DateUtc dt:dt=""string"">2019-09-21T16:53:51Z</DateUtc></FrequencyChange></FrequencyChanges></Clock>\n"	Run1_VA_R01_R1proc-69-1	60.022	1.0.0.188	1	59289428	Professional	2.0.10.356	2.0.10.356	9/21/2019	9/21/2019 16:53	12:53:51	2.0.10.252	1	0	0	55931	7	55931	3999	-999999	234002	-3	215873	0	Run1Proc	1	1	1	RunList	5	OfficeLarge	8000	0	181886	0	181886	0	181886	0	E1OfficeLargeBlockProc	5.0	1.0	5.0	n/a	n/a	n/a	n/a	n/a	n/a	n/a	n/a	n/a	n/a	n/a	n/a	Run1BlockList	2	n/a	n/a	n/a	n/a	n/a	n/a	n/a	n/a	n/a	n/a	n/a	n/a	n/a	n/a	n/a	n/a	n/a	n/a	n/a	n/a	n/a	n/a	n/a	n/a	n/a	n/a	n/a	n/a	n/a	n/a	n/a	n/a	n/a	n/a	n/a	n/a	n/a	n/a	n/a	n/a	n/a	n/a	n/a	n/a	n/a	n/a	n/a	n/a	n/a	n/a	n/a	n/a	n/a	n/a	n/a	n/a	n/a	n/a	n/a	n/a	2.0	1.0	2.0	n/a	n/a	n/a	n/a	n/a	n/a	n/a	n/a	n/a	n/a	n/a	n/a	n/a	n/a	n/a	n/a	n/a	n/a	n/a	n/a	n/a	n/a	n/a	n/a	n/a	n/a	n/a	E1_02.jpg	500	0	169390	-1	169390	0	TrialProc1	E1OfficeLargeBlockList	2500	0	166891	0	166891	0	166891	2499	n/a	0	0	110.961
114	2.5	Run1_VA_R01_R1proc	69	1	"<?xml version=""1.0""?>\n<Clock xmlns:dt=""urn:schemas-microsoft-com:datatypes""><Description dt:dt=""string"">E-Prime Primary Realtime Clock</Description><StartTime><Timestamp dt:dt=""int"">0</Timestamp><DateUtc dt:dt=""string"">2019-09-21T16:53:51Z</DateUtc></StartTime><FrequencyChanges><FrequencyChange><Frequency dt:dt=""r8"">3020380</Frequency><Timestamp dt:dt=""r8"">6232056266445</Timestamp><Current dt:dt=""r8"">0</Current><DateUtc dt:dt=""string"">2019-09-21T16:53:51Z</DateUtc></FrequencyChange></FrequencyChanges></Clock>\n"	Run1_VA_R01_R1proc-69-1	60.022	1.0.0.188	1	59289428	Professional	2.0.10.356	2.0.10.356	9/21/2019	9/21/2019 16:53	12:53:51	2.0.10.252	1	0	0	55931	7	55931	3999	-999999	234002	-3	215873	0	Run1Proc	1	1	1	RunList	5	OfficeLarge	8000	0	181886	0	181886	0	181886	0	E1OfficeLargeBlockProc	5.0	1.0	5.0	n/a	n/a	n/a	n/a	n/a	n/a	n/a	n/a	n/a	n/a	n/a	n/a	Run1BlockList	3	n/a	n/a	n/a	n/a	n/a	n/a	n/a	n/a	n/a	n/a	n/a	n/a	n/a	n/a	n/a	n/a	n/a	n/a	n/a	n/a	n/a	n/a	n/a	n/a	n/a	n/a	n/a	n/a	n/a	n/a	n/a	n/a	n/a	n/a	n/a	n/a	n/a	n/a	n/a	n/a	n/a	n/a	n/a	n/a	n/a	n/a	n/a	n/a	n/a	n/a	n/a	n/a	n/a	n/a	n/a	n/a	n/a	n/a	n/a	n/a	3.0	1.0	3.0	n/a	n/a	n/a	n/a	n/a	n/a	n/a	n/a	n/a	n/a	n/a	n/a	n/a	n/a	n/a	n/a	n/a	n/a	n/a	n/a	n/a	n/a	n/a	n/a	n/a	n/a	n/a	E1_03.jpg	500	0	172389	-1	172389	0	TrialProc1	E1OfficeLargeBlockList	2500	0	169890	0	169890	0	169890	2499	d	1760	171650	113.96
117	2.5	Run1_VA_R01_R1proc	69	1	"<?xml version=""1.0""?>\n<Clock xmlns:dt=""urn:schemas-microsoft-com:datatypes""><Description dt:dt=""string"">E-Prime Primary Realtime Clock</Description><StartTime><Timestamp dt:dt=""int"">0</Timestamp><DateUtc dt:dt=""string"">2019-09-21T16:53:51Z</DateUtc></StartTime><FrequencyChanges><FrequencyChange><Frequency dt:dt=""r8"">3020380</Frequency><Timestamp dt:dt=""r8"">6232056266445</Timestamp><Current dt:dt=""r8"">0</Current><DateUtc dt:dt=""string"">2019-09-21T16:53:51Z</DateUtc></FrequencyChange></FrequencyChanges></Clock>\n"	Run1_VA_R01_R1proc-69-1	60.022	1.0.0.188	1	59289428	Professional	2.0.10.356	2.0.10.356	9/21/2019	9/21/2019 16:53	12:53:51	2.0.10.252	1	0	0	55931	7	55931	3999	-999999	234002	-3	215873	0	Run1Proc	1	1	1	RunList	5	OfficeLarge	8000	0	181886	0	181886	0	181886	0	E1OfficeLargeBlockProc	5.0	1.0	5.0	n/a	n/a	n/a	n/a	n/a	n/a	n/a	n/a	n/a	n/a	n/a	n/a	Run1BlockList	4	n/a	n/a	n/a	n/a	n/a	n/a	n/a	n/a	n/a	n/a	n/a	n/a	n/a	n/a	n/a	n/a	n/a	n/a	n/a	n/a	n/a	n/a	n/a	n/a	n/a	n/a	n/a	n/a	n/a	n/a	n/a	n/a	n/a	n/a	n/a	n/a	n/a	n/a	n/a	n/a	n/a	n/a	n/a	n/a	n/a	n/a	n/a	n/a	n/a	n/a	n/a	n/a	n/a	n/a	n/a	n/a	n/a	n/a	n/a	n/a	4.0	1.0	4.0	n/a	n/a	n/a	n/a	n/a	n/a	n/a	n/a	n/a	n/a	n/a	n/a	n/a	n/a	n/a	n/a	n/a	n/a	n/a	n/a	n/a	n/a	n/a	n/a	n/a	n/a	n/a	E1_04.jpg	500	0	175388	-1	175388	0	TrialProc1	E1OfficeLargeBlockList	2500	0	172889	0	172889	0	172889	2499	d	1665	174554	116.959
120	2.5	Run1_VA_R01_R1proc	69	1	"<?xml version=""1.0""?>\n<Clock xmlns:dt=""urn:schemas-microsoft-com:datatypes""><Description dt:dt=""string"">E-Prime Primary Realtime Clock</Description><StartTime><Timestamp dt:dt=""int"">0</Timestamp><DateUtc dt:dt=""string"">2019-09-21T16:53:51Z</DateUtc></StartTime><FrequencyChanges><FrequencyChange><Frequency dt:dt=""r8"">3020380</Frequency><Timestamp dt:dt=""r8"">6232056266445</Timestamp><Current dt:dt=""r8"">0</Current><DateUtc dt:dt=""string"">2019-09-21T16:53:51Z</DateUtc></FrequencyChange></FrequencyChanges></Clock>\n"	Run1_VA_R01_R1proc-69-1	60.022	1.0.0.188	1	59289428	Professional	2.0.10.356	2.0.10.356	9/21/2019	9/21/2019 16:53	12:53:51	2.0.10.252	1	0	0	55931	7	55931	3999	-999999	234002	-3	215873	0	Run1Proc	1	1	1	RunList	5	OfficeLarge	8000	0	181886	0	181886	0	181886	0	E1OfficeLargeBlockProc	5.0	1.0	5.0	n/a	n/a	n/a	n/a	n/a	n/a	n/a	n/a	n/a	n/a	n/a	n/a	Run1BlockList	5	n/a	n/a	n/a	n/a	n/a	n/a	n/a	n/a	n/a	n/a	n/a	n/a	n/a	n/a	n/a	n/a	n/a	n/a	n/a	n/a	n/a	n/a	n/a	n/a	n/a	n/a	n/a	n/a	n/a	n/a	n/a	n/a	n/a	n/a	n/a	n/a	n/a	n/a	n/a	n/a	n/a	n/a	n/a	n/a	n/a	n/a	n/a	n/a	n/a	n/a	n/a	n/a	n/a	n/a	n/a	n/a	n/a	n/a	n/a	n/a	5.0	1.0	5.0	n/a	n/a	n/a	n/a	n/a	n/a	n/a	n/a	n/a	n/a	n/a	n/a	n/a	n/a	n/a	n/a	n/a	n/a	n/a	n/a	n/a	n/a	n/a	n/a	n/a	n/a	n/a	E1_05.jpg	500	0	178387	-1	178387	0	TrialProc1	E1OfficeLargeBlockList	2500	0	175888	0	175888	0	175888	2499	d	2458	178346	119.958
123	2.5	Run1_VA_R01_R1proc	69	1	"<?xml version=""1.0""?>\n<Clock xmlns:dt=""urn:schemas-microsoft-com:datatypes""><Description dt:dt=""string"">E-Prime Primary Realtime Clock</Description><StartTime><Timestamp dt:dt=""int"">0</Timestamp><DateUtc dt:dt=""string"">2019-09-21T16:53:51Z</DateUtc></StartTime><FrequencyChanges><FrequencyChange><Frequency dt:dt=""r8"">3020380</Frequency><Timestamp dt:dt=""r8"">6232056266445</Timestamp><Current dt:dt=""r8"">0</Current><DateUtc dt:dt=""string"">2019-09-21T16:53:51Z</DateUtc></FrequencyChange></FrequencyChanges></Clock>\n"	Run1_VA_R01_R1proc-69-1	60.022	1.0.0.188	1	59289428	Professional	2.0.10.356	2.0.10.356	9/21/2019	9/21/2019 16:53	12:53:51	2.0.10.252	1	0	0	55931	7	55931	3999	-999999	234002	-3	215873	0	Run1Proc	1	1	1	RunList	5	OfficeLarge	8000	0	181886	0	181886	0	181886	0	E1OfficeLargeBlockProc	5.0	1.0	5.0	n/a	n/a	n/a	n/a	n/a	n/a	n/a	n/a	n/a	n/a	n/a	n/a	Run1BlockList	6	n/a	n/a	n/a	n/a	n/a	n/a	n/a	n/a	n/a	n/a	n/a	n/a	n/a	n/a	n/a	n/a	n/a	n/a	n/a	n/a	n/a	n/a	n/a	n/a	n/a	n/a	n/a	n/a	n/a	n/a	n/a	n/a	n/a	n/a	n/a	n/a	n/a	n/a	n/a	n/a	n/a	n/a	n/a	n/a	n/a	n/a	n/a	n/a	n/a	n/a	n/a	n/a	n/a	n/a	n/a	n/a	n/a	n/a	n/a	n/a	6.0	1.0	6.0	n/a	n/a	n/a	n/a	n/a	n/a	n/a	n/a	n/a	n/a	n/a	n/a	n/a	n/a	n/a	n/a	n/a	n/a	n/a	n/a	n/a	n/a	n/a	n/a	n/a	n/a	n/a	E1_06.jpg	500	0	181386	-1	181386	0	TrialProc1	E1OfficeLargeBlockList	2500	0	178887	0	178887	0	178887	2499	c	1755	180642	122.957
134	2.5	Run1_VA_R01_R1proc	69	1	"<?xml version=""1.0""?>\n<Clock xmlns:dt=""urn:schemas-microsoft-com:datatypes""><Description dt:dt=""string"">E-Prime Primary Realtime Clock</Description><StartTime><Timestamp dt:dt=""int"">0</Timestamp><DateUtc dt:dt=""string"">2019-09-21T16:53:51Z</DateUtc></StartTime><FrequencyChanges><FrequencyChange><Frequency dt:dt=""r8"">3020380</Frequency><Timestamp dt:dt=""r8"">6232056266445</Timestamp><Current dt:dt=""r8"">0</Current><DateUtc dt:dt=""string"">2019-09-21T16:53:51Z</DateUtc></FrequencyChange></FrequencyChanges></Clock>\n"	Run1_VA_R01_R1proc-69-1	60.022	1.0.0.188	1	59289428	Professional	2.0.10.356	2.0.10.356	9/21/2019	9/21/2019 16:53	12:53:51	2.0.10.252	1	0	0	55931	7	55931	3999	-999999	234002	-3	215873	0	Run1Proc	1	1	1	RunList	6	HighSmallED	8000	0	207876	0	207876	0	207876	0	B1HighSmallEDBlockProc	6.0	1.0	6.0	n/a	n/a	n/a	n/a	n/a	n/a	n/a	n/a	n/a	n/a	n/a	n/a	Run1BlockList	1	n/a	n/a	n/a	n/a	n/a	n/a	n/a	n/a	n/a	n/a	n/a	n/a	n/a	n/a	n/a	1.0	1.0	1.0	n/a	n/a	n/a	n/a	n/a	n/a	n/a	n/a	n/a	n/a	n/a	n/a	n/a	n/a	n/a	n/a	n/a	n/a	n/a	n/a	n/a	n/a	n/a	n/a	n/a	n/a	n/a	n/a	n/a	n/a	n/a	n/a	n/a	n/a	n/a	n/a	n/a	n/a	n/a	n/a	n/a	n/a	n/a	n/a	n/a	n/a	n/a	n/a	n/a	n/a	n/a	n/a	n/a	n/a	n/a	n/a	n/a	n/a	n/a	n/a	n/a	n/a	n/a	n/a	n/a	n/a	n/a	n/a	n/a	n/a	n/a	n/a	B1_01.jpg	500	0	192382	-1	192382	0	TrialProc1	B1HighSmallEDBlockList	2500	0	189883	0	189883	-3	189883	2499	c	2367	192250	133.953
137	2.5	Run1_VA_R01_R1proc	69	1	"<?xml version=""1.0""?>\n<Clock xmlns:dt=""urn:schemas-microsoft-com:datatypes""><Description dt:dt=""string"">E-Prime Primary Realtime Clock</Description><StartTime><Timestamp dt:dt=""int"">0</Timestamp><DateUtc dt:dt=""string"">2019-09-21T16:53:51Z</DateUtc></StartTime><FrequencyChanges><FrequencyChange><Frequency dt:dt=""r8"">3020380</Frequency><Timestamp dt:dt=""r8"">6232056266445</Timestamp><Current dt:dt=""r8"">0</Current><DateUtc dt:dt=""string"">2019-09-21T16:53:51Z</DateUtc></FrequencyChange></FrequencyChanges></Clock>\n"	Run1_VA_R01_R1proc-69-1	60.022	1.0.0.188	1	59289428	Professional	2.0.10.356	2.0.10.356	9/21/2019	9/21/2019 16:53	12:53:51	2.0.10.252	1	0	0	55931	7	55931	3999	-999999	234002	-3	215873	0	Run1Proc	1	1	1	RunList	6	HighSmallED	8000	0	207876	0	207876	0	207876	0	B1HighSmallEDBlockProc	6.0	1.0	6.0	n/a	n/a	n/a	n/a	n/a	n/a	n/a	n/a	n/a	n/a	n/a	n/a	Run1BlockList	2	n/a	n/a	n/a	n/a	n/a	n/a	n/a	n/a	n/a	n/a	n/a	n/a	n/a	n/a	n/a	2.0	1.0	2.0	n/a	n/a	n/a	n/a	n/a	n/a	n/a	n/a	n/a	n/a	n/a	n/a	n/a	n/a	n/a	n/a	n/a	n/a	n/a	n/a	n/a	n/a	n/a	n/a	n/a	n/a	n/a	n/a	n/a	n/a	n/a	n/a	n/a	n/a	n/a	n/a	n/a	n/a	n/a	n/a	n/a	n/a	n/a	n/a	n/a	n/a	n/a	n/a	n/a	n/a	n/a	n/a	n/a	n/a	n/a	n/a	n/a	n/a	n/a	n/a	n/a	n/a	n/a	n/a	n/a	n/a	n/a	n/a	n/a	n/a	n/a	n/a	B1_02.jpg	500	0	195381	-1	195381	0	TrialProc1	B1HighSmallEDBlockList	2500	0	192882	0	192882	0	192882	2499	d	1392	194274	136.952
140	2.5	Run1_VA_R01_R1proc	69	1	"<?xml version=""1.0""?>\n<Clock xmlns:dt=""urn:schemas-microsoft-com:datatypes""><Description dt:dt=""string"">E-Prime Primary Realtime Clock</Description><StartTime><Timestamp dt:dt=""int"">0</Timestamp><DateUtc dt:dt=""string"">2019-09-21T16:53:51Z</DateUtc></StartTime><FrequencyChanges><FrequencyChange><Frequency dt:dt=""r8"">3020380</Frequency><Timestamp dt:dt=""r8"">6232056266445</Timestamp><Current dt:dt=""r8"">0</Current><DateUtc dt:dt=""string"">2019-09-21T16:53:51Z</DateUtc></FrequencyChange></FrequencyChanges></Clock>\n"	Run1_VA_R01_R1proc-69-1	60.022	1.0.0.188	1	59289428	Professional	2.0.10.356	2.0.10.356	9/21/2019	9/21/2019 16:53	12:53:51	2.0.10.252	1	0	0	55931	7	55931	3999	-999999	234002	-3	215873	0	Run1Proc	1	1	1	RunList	6	HighSmallED	8000	0	207876	0	207876	0	207876	0	B1HighSmallEDBlockProc	6.0	1.0	6.0	n/a	n/a	n/a	n/a	n/a	n/a	n/a	n/a	n/a	n/a	n/a	n/a	Run1BlockList	3	n/a	n/a	n/a	n/a	n/a	n/a	n/a	n/a	n/a	n/a	n/a	n/a	n/a	n/a	n/a	3.0	1.0	3.0	n/a	n/a	n/a	n/a	n/a	n/a	n/a	n/a	n/a	n/a	n/a	n/a	n/a	n/a	n/a	n/a	n/a	n/a	n/a	n/a	n/a	n/a	n/a	n/a	n/a	n/a	n/a	n/a	n/a	n/a	n/a	n/a	n/a	n/a	n/a	n/a	n/a	n/a	n/a	n/a	n/a	n/a	n/a	n/a	n/a	n/a	n/a	n/a	n/a	n/a	n/a	n/a	n/a	n/a	n/a	n/a	n/a	n/a	n/a	n/a	n/a	n/a	n/a	n/a	n/a	n/a	n/a	n/a	n/a	n/a	n/a	n/a	B1_03.jpg	500	0	198380	-1	198380	0	TrialProc1	B1HighSmallEDBlockList	2500	0	195881	0	195881	0	195881	2499	c	1665	197546	139.951
143	2.5	Run1_VA_R01_R1proc	69	1	"<?xml version=""1.0""?>\n<Clock xmlns:dt=""urn:schemas-microsoft-com:datatypes""><Description dt:dt=""string"">E-Prime Primary Realtime Clock</Description><StartTime><Timestamp dt:dt=""int"">0</Timestamp><DateUtc dt:dt=""string"">2019-09-21T16:53:51Z</DateUtc></StartTime><FrequencyChanges><FrequencyChange><Frequency dt:dt=""r8"">3020380</Frequency><Timestamp dt:dt=""r8"">6232056266445</Timestamp><Current dt:dt=""r8"">0</Current><DateUtc dt:dt=""string"">2019-09-21T16:53:51Z</DateUtc></FrequencyChange></FrequencyChanges></Clock>\n"	Run1_VA_R01_R1proc-69-1	60.022	1.0.0.188	1	59289428	Professional	2.0.10.356	2.0.10.356	9/21/2019	9/21/2019 16:53	12:53:51	2.0.10.252	1	0	0	55931	7	55931	3999	-999999	234002	-3	215873	0	Run1Proc	1	1	1	RunList	6	HighSmallED	8000	0	207876	0	207876	0	207876	0	B1HighSmallEDBlockProc	6.0	1.0	6.0	n/a	n/a	n/a	n/a	n/a	n/a	n/a	n/a	n/a	n/a	n/a	n/a	Run1BlockList	4	n/a	n/a	n/a	n/a	n/a	n/a	n/a	n/a	n/a	n/a	n/a	n/a	n/a	n/a	n/a	4.0	1.0	4.0	n/a	n/a	n/a	n/a	n/a	n/a	n/a	n/a	n/a	n/a	n/a	n/a	n/a	n/a	n/a	n/a	n/a	n/a	n/a	n/a	n/a	n/a	n/a	n/a	n/a	n/a	n/a	n/a	n/a	n/a	n/a	n/a	n/a	n/a	n/a	n/a	n/a	n/a	n/a	n/a	n/a	n/a	n/a	n/a	n/a	n/a	n/a	n/a	n/a	n/a	n/a	n/a	n/a	n/a	n/a	n/a	n/a	n/a	n/a	n/a	n/a	n/a	n/a	n/a	n/a	n/a	n/a	n/a	n/a	n/a	n/a	n/a	B1_04.jpg	500	0	201379	0	201379	0	TrialProc1	B1HighSmallEDBlockList	2500	0	198880	0	198879	-1	198879	2500	d	1091	199970	142.949
146	2.5	Run1_VA_R01_R1proc	69	1	"<?xml version=""1.0""?>\n<Clock xmlns:dt=""urn:schemas-microsoft-com:datatypes""><Description dt:dt=""string"">E-Prime Primary Realtime Clock</Description><StartTime><Timestamp dt:dt=""int"">0</Timestamp><DateUtc dt:dt=""string"">2019-09-21T16:53:51Z</DateUtc></StartTime><FrequencyChanges><FrequencyChange><Frequency dt:dt=""r8"">3020380</Frequency><Timestamp dt:dt=""r8"">6232056266445</Timestamp><Current dt:dt=""r8"">0</Current><DateUtc dt:dt=""string"">2019-09-21T16:53:51Z</DateUtc></FrequencyChange></FrequencyChanges></Clock>\n"	Run1_VA_R01_R1proc-69-1	60.022	1.0.0.188	1	59289428	Professional	2.0.10.356	2.0.10.356	9/21/2019	9/21/2019 16:53	12:53:51	2.0.10.252	1	0	0	55931	7	55931	3999	-999999	234002	-3	215873	0	Run1Proc	1	1	1	RunList	6	HighSmallED	8000	0	207876	0	207876	0	207876	0	B1HighSmallEDBlockProc	6.0	1.0	6.0	n/a	n/a	n/a	n/a	n/a	n/a	n/a	n/a	n/a	n/a	n/a	n/a	Run1BlockList	5	n/a	n/a	n/a	n/a	n/a	n/a	n/a	n/a	n/a	n/a	n/a	n/a	n/a	n/a	n/a	5.0	1.0	5.0	n/a	n/a	n/a	n/a	n/a	n/a	n/a	n/a	n/a	n/a	n/a	n/a	n/a	n/a	n/a	n/a	n/a	n/a	n/a	n/a	n/a	n/a	n/a	n/a	n/a	n/a	n/a	n/a	n/a	n/a	n/a	n/a	n/a	n/a	n/a	n/a	n/a	n/a	n/a	n/a	n/a	n/a	n/a	n/a	n/a	n/a	n/a	n/a	n/a	n/a	n/a	n/a	n/a	n/a	n/a	n/a	n/a	n/a	n/a	n/a	n/a	n/a	n/a	n/a	n/a	n/a	n/a	n/a	n/a	n/a	n/a	n/a	B1_05.jpg	500	1	204378	-1	204377	0	TrialProc1	B1HighSmallEDBlockList	2500	0	201878	0	201878	-1	201878	2499	c	1572	203450	145.948
149	2.5	Run1_VA_R01_R1proc	69	1	"<?xml version=""1.0""?>\n<Clock xmlns:dt=""urn:schemas-microsoft-com:datatypes""><Description dt:dt=""string"">E-Prime Primary Realtime Clock</Description><StartTime><Timestamp dt:dt=""int"">0</Timestamp><DateUtc dt:dt=""string"">2019-09-21T16:53:51Z</DateUtc></StartTime><FrequencyChanges><FrequencyChange><Frequency dt:dt=""r8"">3020380</Frequency><Timestamp dt:dt=""r8"">6232056266445</Timestamp><Current dt:dt=""r8"">0</Current><DateUtc dt:dt=""string"">2019-09-21T16:53:51Z</DateUtc></FrequencyChange></FrequencyChanges></Clock>\n"	Run1_VA_R01_R1proc-69-1	60.022	1.0.0.188	1	59289428	Professional	2.0.10.356	2.0.10.356	9/21/2019	9/21/2019 16:53	12:53:51	2.0.10.252	1	0	0	55931	7	55931	3999	-999999	234002	-3	215873	0	Run1Proc	1	1	1	RunList	6	HighSmallED	8000	0	207876	0	207876	0	207876	0	B1HighSmallEDBlockProc	6.0	1.0	6.0	n/a	n/a	n/a	n/a	n/a	n/a	n/a	n/a	n/a	n/a	n/a	n/a	Run1BlockList	6	n/a	n/a	n/a	n/a	n/a	n/a	n/a	n/a	n/a	n/a	n/a	n/a	n/a	n/a	n/a	6.0	1.0	6.0	n/a	n/a	n/a	n/a	n/a	n/a	n/a	n/a	n/a	n/a	n/a	n/a	n/a	n/a	n/a	n/a	n/a	n/a	n/a	n/a	n/a	n/a	n/a	n/a	n/a	n/a	n/a	n/a	n/a	n/a	n/a	n/a	n/a	n/a	n/a	n/a	n/a	n/a	n/a	n/a	n/a	n/a	n/a	n/a	n/a	n/a	n/a	n/a	n/a	n/a	n/a	n/a	n/a	n/a	n/a	n/a	n/a	n/a	n/a	n/a	n/a	n/a	n/a	n/a	n/a	n/a	n/a	n/a	n/a	n/a	n/a	n/a	B1_06.jpg	500	0	207376	-1	207376	0	TrialProc1	B1HighSmallEDBlockList	2500	0	204877	0	204877	0	204877	2499	c	1141	206018	148.947
