onset	duration	experiment_name	sub	ses	clock_information	datafile_basename	display_refreshrate	experiment_version	group	randomseed	runtime_capabilities	runtime_version	runtimeversionexpected	session_date	session_start_date_time_utc	session_time	studio_version	block	fixation2trs_durationerror	fixation2trs_offsetdelay	fixation2trs_offsettime	fixation2trs_onsetdelay	fixation2trs_onsettime	fixation2trs_onsettoonsettime	goodwork_durationerror	goodwork_finishtime	goodwork_onsetdelay	goodwork_onsettime	goodwork_onsettoonsettime	procedure_block	runlist	runlist_cycle	runlist_sample	running_block	trial	condition	interblockinterval_duration	interblockinterval_durationerror	interblockinterval_finishtime	interblockinterval_offsetdelay	interblockinterval_offsettime	interblockinterval_onsetdelay	interblockinterval_onsettime	interblockinterval_onsettoonsettime	procedure_trial	run1blocklist	run1blocklist_cycle	run1blocklist_sample	run2blocklist	run2blocklist_cycle	run2blocklist_sample	run3blocklist	run3blocklist_cycle	run3blocklist_sample	run4blocklist	run4blocklist_cycle	run4blocklist_sample	run5blocklist	run5blocklist_cycle	run5blocklist_sample	running_trial	subtrial	a1highlargeedblocklist	a1highlargeedblocklist_cycle	a1highlargeedblocklist_sample	a2highlargeedblocklist	a2highlargeedblocklist_cycle	a2highlargeedblocklist_sample	a3highlargeedblocklist	a3highlargeedblocklist_cycle	a3highlargeedblocklist_sample	a4highlargeedblocklist	a4highlargeedblocklist_cycle	a4highlargeedblocklist_sample	a5highlargeedblocklist	a5highlargeedblocklist_cycle	a5highlargeedblocklist_sample	b1highsmalledblocklist	b1highsmalledblocklist_cycle	b1highsmalledblocklist_sample	b2highsmalledblocklist	b2highsmalledblocklist_cycle	b2highsmalledblocklist_sample	b3highsmalledblocklist	b3highsmalledblocklist_cycle	b3highsmalledblocklist_sample	b4highsmalledblocklist	b4highsmalledblocklist_cycle	b4highsmalledblocklist_sample	b5highsmalledblocklist	b5highsmalledblocklist_cycle	b5highsmalledblocklist_sample	c1lowlargeedblocklist	c1lowlargeedblocklist_cycle	c1lowlargeedblocklist_sample	c2lowlargeedblocklist	c2lowlargeedblocklist_cycle	c2lowlargeedblocklist_sample	c3lowlargeedblocklist	c3lowlargeedblocklist_cycle	c3lowlargeedblocklist_sample	c4lowlargeedblocklist	c4lowlargeedblocklist_cycle	c4lowlargeedblocklist_sample	c5lowlargeedblocklist	c5lowlargeedblocklist_cycle	c5lowlargeedblocklist_sample	d1lowsmalledblocklist	d1lowsmalledblocklist_cycle	d1lowsmalledblocklist_sample	d2highlargeedblocklist	d2highlargeedblocklist_cycle	d2highlargeedblocklist_sample	d3lowsmalledblocklist	d3lowsmalledblocklist_cycle	d3lowsmalledblocklist_sample	d4lowsmalledblocklist	d4lowsmalledblocklist_cycle	d4lowsmalledblocklist_sample	d5lowsmalledblocklist	d5lowsmalledblocklist_cycle	d5lowsmalledblocklist_sample	e1officelargeblocklist	e1officelargeblocklist_cycle	e1officelargeblocklist_sample	e2officelargeblocklist	e2officelargeblocklist_cycle	e2officelargeblocklist_sample	e3officelargeblocklist	e3officelargeblocklist_cycle	e3officelargeblocklist_sample	e4officelargeblocklist	e4officelargeblocklist_cycle	e4officelargeblocklist_sample	e5officelargeblocklist	e5officelargeblocklist_cycle	e5officelargeblocklist_sample	f1officesmallblocklist	f1officesmallblocklist_cycle	f1officesmallblocklist_sample	f2officesmallblocklist	f2officesmallblocklist_cycle	f2officesmallblocklist_sample	f3officesmallblocklist	f3officesmallblocklist_cycle	f3officesmallblocklist_sample	f4officesmallblocklist	f4officesmallblocklist_cycle	f4officesmallblocklist_sample	f5officesmallblocklist	f5officesmallblocklist_cycle	f5officesmallblocklist_sample	filename	isi_duration	isi_durationerror	isi_finishtime	isi_onsetdelay	isi_onsettime	isi_onsettoonsettime	procedure_subtrial	running_subtrial	stimslide_duration	stimslide_durationerror	stimslide_finishtime	stimslide_offsetdelay	stimslide_offsettime	stimslide_onsetdelay	stimslide_onsettime	stimslide_onsettoonsettime	stimslide_resp	stimslide_rt	stimslide_rttime	onset_unrounded
4	2.5	Run5_VA_R01_R2proc	69	1	"<?xml version=""1.0""?>\n<Clock xmlns:dt=""urn:schemas-microsoft-com:datatypes""><Description dt:dt=""string"">E-Prime Primary Realtime Clock</Description><StartTime><Timestamp dt:dt=""int"">0</Timestamp><DateUtc dt:dt=""string"">2019-09-21T17:08:04Z</DateUtc></StartTime><FrequencyChanges><FrequencyChange><Frequency dt:dt=""r8"">3020380</Frequency><Timestamp dt:dt=""r8"">6234631571573</Timestamp><Current dt:dt=""r8"">0</Current><DateUtc dt:dt=""string"">2019-09-21T17:08:04Z</DateUtc></FrequencyChange></FrequencyChanges></Clock>\n"	Run5_VA_R01_R2proc-69-1	60.023	1.0.0.187	1	-1660327580	Professional	2.0.10.356	2.0.10.356	9/21/2019	9/21/2019 17:08	13:08:04	2.0.10.252	5	0	0	15877	19	15877	3999	-999999	179592	-3	175819	0	Run2Proc	1	1	1	RunList	1	HighSmallED	8000	0	37869	0	37869	0	37869	0	B2HighSmallEDBlockProc	n/a	n/a	n/a	1.0	1.0	1.0	n/a	n/a	n/a	n/a	n/a	n/a	n/a	n/a	n/a	Run2BlockList	1	n/a	n/a	n/a	n/a	n/a	n/a	n/a	n/a	n/a	n/a	n/a	n/a	n/a	n/a	n/a	n/a	n/a	n/a	1.0	1.0	1.0	n/a	n/a	n/a	n/a	n/a	n/a	n/a	n/a	n/a	n/a	n/a	n/a	n/a	n/a	n/a	n/a	n/a	n/a	n/a	n/a	n/a	n/a	n/a	n/a	n/a	n/a	n/a	n/a	n/a	n/a	n/a	n/a	n/a	n/a	n/a	n/a	n/a	n/a	n/a	n/a	n/a	n/a	n/a	n/a	n/a	n/a	n/a	n/a	n/a	n/a	n/a	n/a	n/a	n/a	n/a	n/a	n/a	n/a	n/a	n/a	n/a	n/a	n/a	n/a	n/a	n/a	n/a	n/a	n/a	B2_01.jpg	500	0	22375	-1	22375	0	TrialProc1	B2HighSmallEDBlockList	2500	0	19876	0	19876	-1	19876	2499	d	1381	21257	4.0
7	2.5	Run5_VA_R01_R2proc	69	1	"<?xml version=""1.0""?>\n<Clock xmlns:dt=""urn:schemas-microsoft-com:datatypes""><Description dt:dt=""string"">E-Prime Primary Realtime Clock</Description><StartTime><Timestamp dt:dt=""int"">0</Timestamp><DateUtc dt:dt=""string"">2019-09-21T17:08:04Z</DateUtc></StartTime><FrequencyChanges><FrequencyChange><Frequency dt:dt=""r8"">3020380</Frequency><Timestamp dt:dt=""r8"">6234631571573</Timestamp><Current dt:dt=""r8"">0</Current><DateUtc dt:dt=""string"">2019-09-21T17:08:04Z</DateUtc></FrequencyChange></FrequencyChanges></Clock>\n"	Run5_VA_R01_R2proc-69-1	60.023	1.0.0.187	1	-1660327580	Professional	2.0.10.356	2.0.10.356	9/21/2019	9/21/2019 17:08	13:08:04	2.0.10.252	5	0	0	15877	19	15877	3999	-999999	179592	-3	175819	0	Run2Proc	1	1	1	RunList	1	HighSmallED	8000	0	37869	0	37869	0	37869	0	B2HighSmallEDBlockProc	n/a	n/a	n/a	1.0	1.0	1.0	n/a	n/a	n/a	n/a	n/a	n/a	n/a	n/a	n/a	Run2BlockList	2	n/a	n/a	n/a	n/a	n/a	n/a	n/a	n/a	n/a	n/a	n/a	n/a	n/a	n/a	n/a	n/a	n/a	n/a	2.0	1.0	2.0	n/a	n/a	n/a	n/a	n/a	n/a	n/a	n/a	n/a	n/a	n/a	n/a	n/a	n/a	n/a	n/a	n/a	n/a	n/a	n/a	n/a	n/a	n/a	n/a	n/a	n/a	n/a	n/a	n/a	n/a	n/a	n/a	n/a	n/a	n/a	n/a	n/a	n/a	n/a	n/a	n/a	n/a	n/a	n/a	n/a	n/a	n/a	n/a	n/a	n/a	n/a	n/a	n/a	n/a	n/a	n/a	n/a	n/a	n/a	n/a	n/a	n/a	n/a	n/a	n/a	n/a	n/a	n/a	n/a	B2_02.jpg	500	0	25374	-1	25374	0	TrialProc1	B2HighSmallEDBlockList	2500	0	22875	0	22875	0	22875	2499	c	1550	24425	6.9990000000000006
10	2.5	Run5_VA_R01_R2proc	69	1	"<?xml version=""1.0""?>\n<Clock xmlns:dt=""urn:schemas-microsoft-com:datatypes""><Description dt:dt=""string"">E-Prime Primary Realtime Clock</Description><StartTime><Timestamp dt:dt=""int"">0</Timestamp><DateUtc dt:dt=""string"">2019-09-21T17:08:04Z</DateUtc></StartTime><FrequencyChanges><FrequencyChange><Frequency dt:dt=""r8"">3020380</Frequency><Timestamp dt:dt=""r8"">6234631571573</Timestamp><Current dt:dt=""r8"">0</Current><DateUtc dt:dt=""string"">2019-09-21T17:08:04Z</DateUtc></FrequencyChange></FrequencyChanges></Clock>\n"	Run5_VA_R01_R2proc-69-1	60.023	1.0.0.187	1	-1660327580	Professional	2.0.10.356	2.0.10.356	9/21/2019	9/21/2019 17:08	13:08:04	2.0.10.252	5	0	0	15877	19	15877	3999	-999999	179592	-3	175819	0	Run2Proc	1	1	1	RunList	1	HighSmallED	8000	0	37869	0	37869	0	37869	0	B2HighSmallEDBlockProc	n/a	n/a	n/a	1.0	1.0	1.0	n/a	n/a	n/a	n/a	n/a	n/a	n/a	n/a	n/a	Run2BlockList	3	n/a	n/a	n/a	n/a	n/a	n/a	n/a	n/a	n/a	n/a	n/a	n/a	n/a	n/a	n/a	n/a	n/a	n/a	3.0	1.0	3.0	n/a	n/a	n/a	n/a	n/a	n/a	n/a	n/a	n/a	n/a	n/a	n/a	n/a	n/a	n/a	n/a	n/a	n/a	n/a	n/a	n/a	n/a	n/a	n/a	n/a	n/a	n/a	n/a	n/a	n/a	n/a	n/a	n/a	n/a	n/a	n/a	n/a	n/a	n/a	n/a	n/a	n/a	n/a	n/a	n/a	n/a	n/a	n/a	n/a	n/a	n/a	n/a	n/a	n/a	n/a	n/a	n/a	n/a	n/a	n/a	n/a	n/a	n/a	n/a	n/a	n/a	n/a	n/a	n/a	B2_03.jpg	500	0	28373	-1	28373	0	TrialProc1	B2HighSmallEDBlockList	2500	0	25874	0	25874	0	25874	2499	n/a	0	0	9.998000000000001
13	2.5	Run5_VA_R01_R2proc	69	1	"<?xml version=""1.0""?>\n<Clock xmlns:dt=""urn:schemas-microsoft-com:datatypes""><Description dt:dt=""string"">E-Prime Primary Realtime Clock</Description><StartTime><Timestamp dt:dt=""int"">0</Timestamp><DateUtc dt:dt=""string"">2019-09-21T17:08:04Z</DateUtc></StartTime><FrequencyChanges><FrequencyChange><Frequency dt:dt=""r8"">3020380</Frequency><Timestamp dt:dt=""r8"">6234631571573</Timestamp><Current dt:dt=""r8"">0</Current><DateUtc dt:dt=""string"">2019-09-21T17:08:04Z</DateUtc></FrequencyChange></FrequencyChanges></Clock>\n"	Run5_VA_R01_R2proc-69-1	60.023	1.0.0.187	1	-1660327580	Professional	2.0.10.356	2.0.10.356	9/21/2019	9/21/2019 17:08	13:08:04	2.0.10.252	5	0	0	15877	19	15877	3999	-999999	179592	-3	175819	0	Run2Proc	1	1	1	RunList	1	HighSmallED	8000	0	37869	0	37869	0	37869	0	B2HighSmallEDBlockProc	n/a	n/a	n/a	1.0	1.0	1.0	n/a	n/a	n/a	n/a	n/a	n/a	n/a	n/a	n/a	Run2BlockList	4	n/a	n/a	n/a	n/a	n/a	n/a	n/a	n/a	n/a	n/a	n/a	n/a	n/a	n/a	n/a	n/a	n/a	n/a	4.0	1.0	4.0	n/a	n/a	n/a	n/a	n/a	n/a	n/a	n/a	n/a	n/a	n/a	n/a	n/a	n/a	n/a	n/a	n/a	n/a	n/a	n/a	n/a	n/a	n/a	n/a	n/a	n/a	n/a	n/a	n/a	n/a	n/a	n/a	n/a	n/a	n/a	n/a	n/a	n/a	n/a	n/a	n/a	n/a	n/a	n/a	n/a	n/a	n/a	n/a	n/a	n/a	n/a	n/a	n/a	n/a	n/a	n/a	n/a	n/a	n/a	n/a	n/a	n/a	n/a	n/a	n/a	n/a	n/a	n/a	n/a	B2_04.jpg	500	0	31372	0	31372	0	TrialProc1	B2HighSmallEDBlockList	2500	1	28873	1	28873	-1	28872	2500	c	1449	30321	12.996
16	2.5	Run5_VA_R01_R2proc	69	1	"<?xml version=""1.0""?>\n<Clock xmlns:dt=""urn:schemas-microsoft-com:datatypes""><Description dt:dt=""string"">E-Prime Primary Realtime Clock</Description><StartTime><Timestamp dt:dt=""int"">0</Timestamp><DateUtc dt:dt=""string"">2019-09-21T17:08:04Z</DateUtc></StartTime><FrequencyChanges><FrequencyChange><Frequency dt:dt=""r8"">3020380</Frequency><Timestamp dt:dt=""r8"">6234631571573</Timestamp><Current dt:dt=""r8"">0</Current><DateUtc dt:dt=""string"">2019-09-21T17:08:04Z</DateUtc></FrequencyChange></FrequencyChanges></Clock>\n"	Run5_VA_R01_R2proc-69-1	60.023	1.0.0.187	1	-1660327580	Professional	2.0.10.356	2.0.10.356	9/21/2019	9/21/2019 17:08	13:08:04	2.0.10.252	5	0	0	15877	19	15877	3999	-999999	179592	-3	175819	0	Run2Proc	1	1	1	RunList	1	HighSmallED	8000	0	37869	0	37869	0	37869	0	B2HighSmallEDBlockProc	n/a	n/a	n/a	1.0	1.0	1.0	n/a	n/a	n/a	n/a	n/a	n/a	n/a	n/a	n/a	Run2BlockList	5	n/a	n/a	n/a	n/a	n/a	n/a	n/a	n/a	n/a	n/a	n/a	n/a	n/a	n/a	n/a	n/a	n/a	n/a	5.0	1.0	5.0	n/a	n/a	n/a	n/a	n/a	n/a	n/a	n/a	n/a	n/a	n/a	n/a	n/a	n/a	n/a	n/a	n/a	n/a	n/a	n/a	n/a	n/a	n/a	n/a	n/a	n/a	n/a	n/a	n/a	n/a	n/a	n/a	n/a	n/a	n/a	n/a	n/a	n/a	n/a	n/a	n/a	n/a	n/a	n/a	n/a	n/a	n/a	n/a	n/a	n/a	n/a	n/a	n/a	n/a	n/a	n/a	n/a	n/a	n/a	n/a	n/a	n/a	n/a	n/a	n/a	n/a	n/a	n/a	n/a	B2_05.jpg	500	1	34371	-1	34370	0	TrialProc1	B2HighSmallEDBlockList	2500	0	31871	0	31871	-1	31871	2499	d	1434	33305	15.995
19	2.5	Run5_VA_R01_R2proc	69	1	"<?xml version=""1.0""?>\n<Clock xmlns:dt=""urn:schemas-microsoft-com:datatypes""><Description dt:dt=""string"">E-Prime Primary Realtime Clock</Description><StartTime><Timestamp dt:dt=""int"">0</Timestamp><DateUtc dt:dt=""string"">2019-09-21T17:08:04Z</DateUtc></StartTime><FrequencyChanges><FrequencyChange><Frequency dt:dt=""r8"">3020380</Frequency><Timestamp dt:dt=""r8"">6234631571573</Timestamp><Current dt:dt=""r8"">0</Current><DateUtc dt:dt=""string"">2019-09-21T17:08:04Z</DateUtc></FrequencyChange></FrequencyChanges></Clock>\n"	Run5_VA_R01_R2proc-69-1	60.023	1.0.0.187	1	-1660327580	Professional	2.0.10.356	2.0.10.356	9/21/2019	9/21/2019 17:08	13:08:04	2.0.10.252	5	0	0	15877	19	15877	3999	-999999	179592	-3	175819	0	Run2Proc	1	1	1	RunList	1	HighSmallED	8000	0	37869	0	37869	0	37869	0	B2HighSmallEDBlockProc	n/a	n/a	n/a	1.0	1.0	1.0	n/a	n/a	n/a	n/a	n/a	n/a	n/a	n/a	n/a	Run2BlockList	6	n/a	n/a	n/a	n/a	n/a	n/a	n/a	n/a	n/a	n/a	n/a	n/a	n/a	n/a	n/a	n/a	n/a	n/a	6.0	1.0	6.0	n/a	n/a	n/a	n/a	n/a	n/a	n/a	n/a	n/a	n/a	n/a	n/a	n/a	n/a	n/a	n/a	n/a	n/a	n/a	n/a	n/a	n/a	n/a	n/a	n/a	n/a	n/a	n/a	n/a	n/a	n/a	n/a	n/a	n/a	n/a	n/a	n/a	n/a	n/a	n/a	n/a	n/a	n/a	n/a	n/a	n/a	n/a	n/a	n/a	n/a	n/a	n/a	n/a	n/a	n/a	n/a	n/a	n/a	n/a	n/a	n/a	n/a	n/a	n/a	n/a	n/a	n/a	n/a	n/a	B2_06.jpg	500	0	37369	-1	37369	0	TrialProc1	B2HighSmallEDBlockList	2500	0	34870	0	34870	0	34870	2499	c	1715	36585	18.994
30	2.5	Run5_VA_R01_R2proc	69	1	"<?xml version=""1.0""?>\n<Clock xmlns:dt=""urn:schemas-microsoft-com:datatypes""><Description dt:dt=""string"">E-Prime Primary Realtime Clock</Description><StartTime><Timestamp dt:dt=""int"">0</Timestamp><DateUtc dt:dt=""string"">2019-09-21T17:08:04Z</DateUtc></StartTime><FrequencyChanges><FrequencyChange><Frequency dt:dt=""r8"">3020380</Frequency><Timestamp dt:dt=""r8"">6234631571573</Timestamp><Current dt:dt=""r8"">0</Current><DateUtc dt:dt=""string"">2019-09-21T17:08:04Z</DateUtc></FrequencyChange></FrequencyChanges></Clock>\n"	Run5_VA_R01_R2proc-69-1	60.023	1.0.0.187	1	-1660327580	Professional	2.0.10.356	2.0.10.356	9/21/2019	9/21/2019 17:08	13:08:04	2.0.10.252	5	0	0	15877	19	15877	3999	-999999	179592	-3	175819	0	Run2Proc	1	1	1	RunList	2	HighLargeED	8000	0	63860	0	63860	0	63860	0	A2HighLargeEDBlockProc	n/a	n/a	n/a	2.0	1.0	2.0	n/a	n/a	n/a	n/a	n/a	n/a	n/a	n/a	n/a	Run2BlockList	1	n/a	n/a	n/a	1.0	1.0	1.0	n/a	n/a	n/a	n/a	n/a	n/a	n/a	n/a	n/a	n/a	n/a	n/a	n/a	n/a	n/a	n/a	n/a	n/a	n/a	n/a	n/a	n/a	n/a	n/a	n/a	n/a	n/a	n/a	n/a	n/a	n/a	n/a	n/a	n/a	n/a	n/a	n/a	n/a	n/a	n/a	n/a	n/a	n/a	n/a	n/a	n/a	n/a	n/a	n/a	n/a	n/a	n/a	n/a	n/a	n/a	n/a	n/a	n/a	n/a	n/a	n/a	n/a	n/a	n/a	n/a	n/a	n/a	n/a	n/a	n/a	n/a	n/a	n/a	n/a	n/a	n/a	n/a	n/a	n/a	n/a	n/a	n/a	n/a	n/a	A2_01.jpg	500	0	48365	-1	48365	0	TrialProc1	A2HighLargeEDBlockList	2500	0	45866	0	45866	-3	45866	2499	d	2119	47985	29.99
33	2.5	Run5_VA_R01_R2proc	69	1	"<?xml version=""1.0""?>\n<Clock xmlns:dt=""urn:schemas-microsoft-com:datatypes""><Description dt:dt=""string"">E-Prime Primary Realtime Clock</Description><StartTime><Timestamp dt:dt=""int"">0</Timestamp><DateUtc dt:dt=""string"">2019-09-21T17:08:04Z</DateUtc></StartTime><FrequencyChanges><FrequencyChange><Frequency dt:dt=""r8"">3020380</Frequency><Timestamp dt:dt=""r8"">6234631571573</Timestamp><Current dt:dt=""r8"">0</Current><DateUtc dt:dt=""string"">2019-09-21T17:08:04Z</DateUtc></FrequencyChange></FrequencyChanges></Clock>\n"	Run5_VA_R01_R2proc-69-1	60.023	1.0.0.187	1	-1660327580	Professional	2.0.10.356	2.0.10.356	9/21/2019	9/21/2019 17:08	13:08:04	2.0.10.252	5	0	0	15877	19	15877	3999	-999999	179592	-3	175819	0	Run2Proc	1	1	1	RunList	2	HighLargeED	8000	0	63860	0	63860	0	63860	0	A2HighLargeEDBlockProc	n/a	n/a	n/a	2.0	1.0	2.0	n/a	n/a	n/a	n/a	n/a	n/a	n/a	n/a	n/a	Run2BlockList	2	n/a	n/a	n/a	2.0	1.0	2.0	n/a	n/a	n/a	n/a	n/a	n/a	n/a	n/a	n/a	n/a	n/a	n/a	n/a	n/a	n/a	n/a	n/a	n/a	n/a	n/a	n/a	n/a	n/a	n/a	n/a	n/a	n/a	n/a	n/a	n/a	n/a	n/a	n/a	n/a	n/a	n/a	n/a	n/a	n/a	n/a	n/a	n/a	n/a	n/a	n/a	n/a	n/a	n/a	n/a	n/a	n/a	n/a	n/a	n/a	n/a	n/a	n/a	n/a	n/a	n/a	n/a	n/a	n/a	n/a	n/a	n/a	n/a	n/a	n/a	n/a	n/a	n/a	n/a	n/a	n/a	n/a	n/a	n/a	n/a	n/a	n/a	n/a	n/a	n/a	A2_02.jpg	500	0	51364	-1	51364	0	TrialProc1	A2HighLargeEDBlockList	2500	0	48865	0	48865	0	48865	2499	c	1424	50289	32.989000000000004
36	2.5	Run5_VA_R01_R2proc	69	1	"<?xml version=""1.0""?>\n<Clock xmlns:dt=""urn:schemas-microsoft-com:datatypes""><Description dt:dt=""string"">E-Prime Primary Realtime Clock</Description><StartTime><Timestamp dt:dt=""int"">0</Timestamp><DateUtc dt:dt=""string"">2019-09-21T17:08:04Z</DateUtc></StartTime><FrequencyChanges><FrequencyChange><Frequency dt:dt=""r8"">3020380</Frequency><Timestamp dt:dt=""r8"">6234631571573</Timestamp><Current dt:dt=""r8"">0</Current><DateUtc dt:dt=""string"">2019-09-21T17:08:04Z</DateUtc></FrequencyChange></FrequencyChanges></Clock>\n"	Run5_VA_R01_R2proc-69-1	60.023	1.0.0.187	1	-1660327580	Professional	2.0.10.356	2.0.10.356	9/21/2019	9/21/2019 17:08	13:08:04	2.0.10.252	5	0	0	15877	19	15877	3999	-999999	179592	-3	175819	0	Run2Proc	1	1	1	RunList	2	HighLargeED	8000	0	63860	0	63860	0	63860	0	A2HighLargeEDBlockProc	n/a	n/a	n/a	2.0	1.0	2.0	n/a	n/a	n/a	n/a	n/a	n/a	n/a	n/a	n/a	Run2BlockList	3	n/a	n/a	n/a	3.0	1.0	3.0	n/a	n/a	n/a	n/a	n/a	n/a	n/a	n/a	n/a	n/a	n/a	n/a	n/a	n/a	n/a	n/a	n/a	n/a	n/a	n/a	n/a	n/a	n/a	n/a	n/a	n/a	n/a	n/a	n/a	n/a	n/a	n/a	n/a	n/a	n/a	n/a	n/a	n/a	n/a	n/a	n/a	n/a	n/a	n/a	n/a	n/a	n/a	n/a	n/a	n/a	n/a	n/a	n/a	n/a	n/a	n/a	n/a	n/a	n/a	n/a	n/a	n/a	n/a	n/a	n/a	n/a	n/a	n/a	n/a	n/a	n/a	n/a	n/a	n/a	n/a	n/a	n/a	n/a	n/a	n/a	n/a	n/a	n/a	n/a	A2_03.jpg	500	0	54363	-1	54363	0	TrialProc1	A2HighLargeEDBlockList	2500	0	51864	0	51864	0	51864	2499	n/a	0	0	35.988
39	2.5	Run5_VA_R01_R2proc	69	1	"<?xml version=""1.0""?>\n<Clock xmlns:dt=""urn:schemas-microsoft-com:datatypes""><Description dt:dt=""string"">E-Prime Primary Realtime Clock</Description><StartTime><Timestamp dt:dt=""int"">0</Timestamp><DateUtc dt:dt=""string"">2019-09-21T17:08:04Z</DateUtc></StartTime><FrequencyChanges><FrequencyChange><Frequency dt:dt=""r8"">3020380</Frequency><Timestamp dt:dt=""r8"">6234631571573</Timestamp><Current dt:dt=""r8"">0</Current><DateUtc dt:dt=""string"">2019-09-21T17:08:04Z</DateUtc></FrequencyChange></FrequencyChanges></Clock>\n"	Run5_VA_R01_R2proc-69-1	60.023	1.0.0.187	1	-1660327580	Professional	2.0.10.356	2.0.10.356	9/21/2019	9/21/2019 17:08	13:08:04	2.0.10.252	5	0	0	15877	19	15877	3999	-999999	179592	-3	175819	0	Run2Proc	1	1	1	RunList	2	HighLargeED	8000	0	63860	0	63860	0	63860	0	A2HighLargeEDBlockProc	n/a	n/a	n/a	2.0	1.0	2.0	n/a	n/a	n/a	n/a	n/a	n/a	n/a	n/a	n/a	Run2BlockList	4	n/a	n/a	n/a	4.0	1.0	4.0	n/a	n/a	n/a	n/a	n/a	n/a	n/a	n/a	n/a	n/a	n/a	n/a	n/a	n/a	n/a	n/a	n/a	n/a	n/a	n/a	n/a	n/a	n/a	n/a	n/a	n/a	n/a	n/a	n/a	n/a	n/a	n/a	n/a	n/a	n/a	n/a	n/a	n/a	n/a	n/a	n/a	n/a	n/a	n/a	n/a	n/a	n/a	n/a	n/a	n/a	n/a	n/a	n/a	n/a	n/a	n/a	n/a	n/a	n/a	n/a	n/a	n/a	n/a	n/a	n/a	n/a	n/a	n/a	n/a	n/a	n/a	n/a	n/a	n/a	n/a	n/a	n/a	n/a	n/a	n/a	n/a	n/a	n/a	n/a	A2_04.jpg	500	0	57362	-1	57362	0	TrialProc1	A2HighLargeEDBlockList	2500	0	54863	0	54863	0	54863	2499	c	1562	56425	38.987
42	2.5	Run5_VA_R01_R2proc	69	1	"<?xml version=""1.0""?>\n<Clock xmlns:dt=""urn:schemas-microsoft-com:datatypes""><Description dt:dt=""string"">E-Prime Primary Realtime Clock</Description><StartTime><Timestamp dt:dt=""int"">0</Timestamp><DateUtc dt:dt=""string"">2019-09-21T17:08:04Z</DateUtc></StartTime><FrequencyChanges><FrequencyChange><Frequency dt:dt=""r8"">3020380</Frequency><Timestamp dt:dt=""r8"">6234631571573</Timestamp><Current dt:dt=""r8"">0</Current><DateUtc dt:dt=""string"">2019-09-21T17:08:04Z</DateUtc></FrequencyChange></FrequencyChanges></Clock>\n"	Run5_VA_R01_R2proc-69-1	60.023	1.0.0.187	1	-1660327580	Professional	2.0.10.356	2.0.10.356	9/21/2019	9/21/2019 17:08	13:08:04	2.0.10.252	5	0	0	15877	19	15877	3999	-999999	179592	-3	175819	0	Run2Proc	1	1	1	RunList	2	HighLargeED	8000	0	63860	0	63860	0	63860	0	A2HighLargeEDBlockProc	n/a	n/a	n/a	2.0	1.0	2.0	n/a	n/a	n/a	n/a	n/a	n/a	n/a	n/a	n/a	Run2BlockList	5	n/a	n/a	n/a	5.0	1.0	5.0	n/a	n/a	n/a	n/a	n/a	n/a	n/a	n/a	n/a	n/a	n/a	n/a	n/a	n/a	n/a	n/a	n/a	n/a	n/a	n/a	n/a	n/a	n/a	n/a	n/a	n/a	n/a	n/a	n/a	n/a	n/a	n/a	n/a	n/a	n/a	n/a	n/a	n/a	n/a	n/a	n/a	n/a	n/a	n/a	n/a	n/a	n/a	n/a	n/a	n/a	n/a	n/a	n/a	n/a	n/a	n/a	n/a	n/a	n/a	n/a	n/a	n/a	n/a	n/a	n/a	n/a	n/a	n/a	n/a	n/a	n/a	n/a	n/a	n/a	n/a	n/a	n/a	n/a	n/a	n/a	n/a	n/a	n/a	n/a	A2_05.jpg	500	0	60361	-1	60361	0	TrialProc1	A2HighLargeEDBlockList	2500	0	57862	0	57862	0	57862	2499	d	1603	59465	41.986
45	2.5	Run5_VA_R01_R2proc	69	1	"<?xml version=""1.0""?>\n<Clock xmlns:dt=""urn:schemas-microsoft-com:datatypes""><Description dt:dt=""string"">E-Prime Primary Realtime Clock</Description><StartTime><Timestamp dt:dt=""int"">0</Timestamp><DateUtc dt:dt=""string"">2019-09-21T17:08:04Z</DateUtc></StartTime><FrequencyChanges><FrequencyChange><Frequency dt:dt=""r8"">3020380</Frequency><Timestamp dt:dt=""r8"">6234631571573</Timestamp><Current dt:dt=""r8"">0</Current><DateUtc dt:dt=""string"">2019-09-21T17:08:04Z</DateUtc></FrequencyChange></FrequencyChanges></Clock>\n"	Run5_VA_R01_R2proc-69-1	60.023	1.0.0.187	1	-1660327580	Professional	2.0.10.356	2.0.10.356	9/21/2019	9/21/2019 17:08	13:08:04	2.0.10.252	5	0	0	15877	19	15877	3999	-999999	179592	-3	175819	0	Run2Proc	1	1	1	RunList	2	HighLargeED	8000	0	63860	0	63860	0	63860	0	A2HighLargeEDBlockProc	n/a	n/a	n/a	2.0	1.0	2.0	n/a	n/a	n/a	n/a	n/a	n/a	n/a	n/a	n/a	Run2BlockList	6	n/a	n/a	n/a	6.0	1.0	6.0	n/a	n/a	n/a	n/a	n/a	n/a	n/a	n/a	n/a	n/a	n/a	n/a	n/a	n/a	n/a	n/a	n/a	n/a	n/a	n/a	n/a	n/a	n/a	n/a	n/a	n/a	n/a	n/a	n/a	n/a	n/a	n/a	n/a	n/a	n/a	n/a	n/a	n/a	n/a	n/a	n/a	n/a	n/a	n/a	n/a	n/a	n/a	n/a	n/a	n/a	n/a	n/a	n/a	n/a	n/a	n/a	n/a	n/a	n/a	n/a	n/a	n/a	n/a	n/a	n/a	n/a	n/a	n/a	n/a	n/a	n/a	n/a	n/a	n/a	n/a	n/a	n/a	n/a	n/a	n/a	n/a	n/a	n/a	n/a	A2_06.jpg	500	0	63360	-1	63360	0	TrialProc1	A2HighLargeEDBlockList	2500	0	60861	0	60861	0	60861	2499	d	1140	62001	44.985
56	2.5	Run5_VA_R01_R2proc	69	1	"<?xml version=""1.0""?>\n<Clock xmlns:dt=""urn:schemas-microsoft-com:datatypes""><Description dt:dt=""string"">E-Prime Primary Realtime Clock</Description><StartTime><Timestamp dt:dt=""int"">0</Timestamp><DateUtc dt:dt=""string"">2019-09-21T17:08:04Z</DateUtc></StartTime><FrequencyChanges><FrequencyChange><Frequency dt:dt=""r8"">3020380</Frequency><Timestamp dt:dt=""r8"">6234631571573</Timestamp><Current dt:dt=""r8"">0</Current><DateUtc dt:dt=""string"">2019-09-21T17:08:04Z</DateUtc></FrequencyChange></FrequencyChanges></Clock>\n"	Run5_VA_R01_R2proc-69-1	60.023	1.0.0.187	1	-1660327580	Professional	2.0.10.356	2.0.10.356	9/21/2019	9/21/2019 17:08	13:08:04	2.0.10.252	5	0	0	15877	19	15877	3999	-999999	179592	-3	175819	0	Run2Proc	1	1	1	RunList	3	OfficeLarge	8000	0	89850	0	89850	-1	89850	0	E2OfficeLargeBlockProc	n/a	n/a	n/a	3.0	1.0	3.0	n/a	n/a	n/a	n/a	n/a	n/a	n/a	n/a	n/a	Run2BlockList	1	n/a	n/a	n/a	n/a	n/a	n/a	n/a	n/a	n/a	n/a	n/a	n/a	n/a	n/a	n/a	n/a	n/a	n/a	n/a	n/a	n/a	n/a	n/a	n/a	n/a	n/a	n/a	n/a	n/a	n/a	n/a	n/a	n/a	n/a	n/a	n/a	n/a	n/a	n/a	n/a	n/a	n/a	n/a	n/a	n/a	n/a	n/a	n/a	n/a	n/a	n/a	n/a	n/a	n/a	n/a	n/a	n/a	n/a	n/a	n/a	n/a	n/a	n/a	1.0	1.0	1.0	n/a	n/a	n/a	n/a	n/a	n/a	n/a	n/a	n/a	n/a	n/a	n/a	n/a	n/a	n/a	n/a	n/a	n/a	n/a	n/a	n/a	n/a	n/a	n/a	E2_01.jpg	500	0	74356	-1	74356	0	TrialProc1	E2OfficeLargeBlockList	2500	0	71857	0	71857	-3	71857	2499	n/a	0	0	55.981
59	2.5	Run5_VA_R01_R2proc	69	1	"<?xml version=""1.0""?>\n<Clock xmlns:dt=""urn:schemas-microsoft-com:datatypes""><Description dt:dt=""string"">E-Prime Primary Realtime Clock</Description><StartTime><Timestamp dt:dt=""int"">0</Timestamp><DateUtc dt:dt=""string"">2019-09-21T17:08:04Z</DateUtc></StartTime><FrequencyChanges><FrequencyChange><Frequency dt:dt=""r8"">3020380</Frequency><Timestamp dt:dt=""r8"">6234631571573</Timestamp><Current dt:dt=""r8"">0</Current><DateUtc dt:dt=""string"">2019-09-21T17:08:04Z</DateUtc></FrequencyChange></FrequencyChanges></Clock>\n"	Run5_VA_R01_R2proc-69-1	60.023	1.0.0.187	1	-1660327580	Professional	2.0.10.356	2.0.10.356	9/21/2019	9/21/2019 17:08	13:08:04	2.0.10.252	5	0	0	15877	19	15877	3999	-999999	179592	-3	175819	0	Run2Proc	1	1	1	RunList	3	OfficeLarge	8000	0	89850	0	89850	-1	89850	0	E2OfficeLargeBlockProc	n/a	n/a	n/a	3.0	1.0	3.0	n/a	n/a	n/a	n/a	n/a	n/a	n/a	n/a	n/a	Run2BlockList	2	n/a	n/a	n/a	n/a	n/a	n/a	n/a	n/a	n/a	n/a	n/a	n/a	n/a	n/a	n/a	n/a	n/a	n/a	n/a	n/a	n/a	n/a	n/a	n/a	n/a	n/a	n/a	n/a	n/a	n/a	n/a	n/a	n/a	n/a	n/a	n/a	n/a	n/a	n/a	n/a	n/a	n/a	n/a	n/a	n/a	n/a	n/a	n/a	n/a	n/a	n/a	n/a	n/a	n/a	n/a	n/a	n/a	n/a	n/a	n/a	n/a	n/a	n/a	2.0	1.0	2.0	n/a	n/a	n/a	n/a	n/a	n/a	n/a	n/a	n/a	n/a	n/a	n/a	n/a	n/a	n/a	n/a	n/a	n/a	n/a	n/a	n/a	n/a	n/a	n/a	E2_02.jpg	500	0	77355	-1	77355	0	TrialProc1	E2OfficeLargeBlockList	2500	0	74856	0	74856	0	74856	2499	c	1793	76649	58.98
62	2.5	Run5_VA_R01_R2proc	69	1	"<?xml version=""1.0""?>\n<Clock xmlns:dt=""urn:schemas-microsoft-com:datatypes""><Description dt:dt=""string"">E-Prime Primary Realtime Clock</Description><StartTime><Timestamp dt:dt=""int"">0</Timestamp><DateUtc dt:dt=""string"">2019-09-21T17:08:04Z</DateUtc></StartTime><FrequencyChanges><FrequencyChange><Frequency dt:dt=""r8"">3020380</Frequency><Timestamp dt:dt=""r8"">6234631571573</Timestamp><Current dt:dt=""r8"">0</Current><DateUtc dt:dt=""string"">2019-09-21T17:08:04Z</DateUtc></FrequencyChange></FrequencyChanges></Clock>\n"	Run5_VA_R01_R2proc-69-1	60.023	1.0.0.187	1	-1660327580	Professional	2.0.10.356	2.0.10.356	9/21/2019	9/21/2019 17:08	13:08:04	2.0.10.252	5	0	0	15877	19	15877	3999	-999999	179592	-3	175819	0	Run2Proc	1	1	1	RunList	3	OfficeLarge	8000	0	89850	0	89850	-1	89850	0	E2OfficeLargeBlockProc	n/a	n/a	n/a	3.0	1.0	3.0	n/a	n/a	n/a	n/a	n/a	n/a	n/a	n/a	n/a	Run2BlockList	3	n/a	n/a	n/a	n/a	n/a	n/a	n/a	n/a	n/a	n/a	n/a	n/a	n/a	n/a	n/a	n/a	n/a	n/a	n/a	n/a	n/a	n/a	n/a	n/a	n/a	n/a	n/a	n/a	n/a	n/a	n/a	n/a	n/a	n/a	n/a	n/a	n/a	n/a	n/a	n/a	n/a	n/a	n/a	n/a	n/a	n/a	n/a	n/a	n/a	n/a	n/a	n/a	n/a	n/a	n/a	n/a	n/a	n/a	n/a	n/a	n/a	n/a	n/a	3.0	1.0	3.0	n/a	n/a	n/a	n/a	n/a	n/a	n/a	n/a	n/a	n/a	n/a	n/a	n/a	n/a	n/a	n/a	n/a	n/a	n/a	n/a	n/a	n/a	n/a	n/a	E2_03.jpg	500	0	80354	-1	80354	0	TrialProc1	E2OfficeLargeBlockList	2500	0	77855	0	77855	0	77855	2499	d	1394	79249	61.979
65	2.5	Run5_VA_R01_R2proc	69	1	"<?xml version=""1.0""?>\n<Clock xmlns:dt=""urn:schemas-microsoft-com:datatypes""><Description dt:dt=""string"">E-Prime Primary Realtime Clock</Description><StartTime><Timestamp dt:dt=""int"">0</Timestamp><DateUtc dt:dt=""string"">2019-09-21T17:08:04Z</DateUtc></StartTime><FrequencyChanges><FrequencyChange><Frequency dt:dt=""r8"">3020380</Frequency><Timestamp dt:dt=""r8"">6234631571573</Timestamp><Current dt:dt=""r8"">0</Current><DateUtc dt:dt=""string"">2019-09-21T17:08:04Z</DateUtc></FrequencyChange></FrequencyChanges></Clock>\n"	Run5_VA_R01_R2proc-69-1	60.023	1.0.0.187	1	-1660327580	Professional	2.0.10.356	2.0.10.356	9/21/2019	9/21/2019 17:08	13:08:04	2.0.10.252	5	0	0	15877	19	15877	3999	-999999	179592	-3	175819	0	Run2Proc	1	1	1	RunList	3	OfficeLarge	8000	0	89850	0	89850	-1	89850	0	E2OfficeLargeBlockProc	n/a	n/a	n/a	3.0	1.0	3.0	n/a	n/a	n/a	n/a	n/a	n/a	n/a	n/a	n/a	Run2BlockList	4	n/a	n/a	n/a	n/a	n/a	n/a	n/a	n/a	n/a	n/a	n/a	n/a	n/a	n/a	n/a	n/a	n/a	n/a	n/a	n/a	n/a	n/a	n/a	n/a	n/a	n/a	n/a	n/a	n/a	n/a	n/a	n/a	n/a	n/a	n/a	n/a	n/a	n/a	n/a	n/a	n/a	n/a	n/a	n/a	n/a	n/a	n/a	n/a	n/a	n/a	n/a	n/a	n/a	n/a	n/a	n/a	n/a	n/a	n/a	n/a	n/a	n/a	n/a	4.0	1.0	4.0	n/a	n/a	n/a	n/a	n/a	n/a	n/a	n/a	n/a	n/a	n/a	n/a	n/a	n/a	n/a	n/a	n/a	n/a	n/a	n/a	n/a	n/a	n/a	n/a	E2_04.jpg	500	0	83353	-1	83353	0	TrialProc1	E2OfficeLargeBlockList	2500	0	80854	0	80854	0	80854	2499	d	1483	82337	64.97800000000001
68	2.5	Run5_VA_R01_R2proc	69	1	"<?xml version=""1.0""?>\n<Clock xmlns:dt=""urn:schemas-microsoft-com:datatypes""><Description dt:dt=""string"">E-Prime Primary Realtime Clock</Description><StartTime><Timestamp dt:dt=""int"">0</Timestamp><DateUtc dt:dt=""string"">2019-09-21T17:08:04Z</DateUtc></StartTime><FrequencyChanges><FrequencyChange><Frequency dt:dt=""r8"">3020380</Frequency><Timestamp dt:dt=""r8"">6234631571573</Timestamp><Current dt:dt=""r8"">0</Current><DateUtc dt:dt=""string"">2019-09-21T17:08:04Z</DateUtc></FrequencyChange></FrequencyChanges></Clock>\n"	Run5_VA_R01_R2proc-69-1	60.023	1.0.0.187	1	-1660327580	Professional	2.0.10.356	2.0.10.356	9/21/2019	9/21/2019 17:08	13:08:04	2.0.10.252	5	0	0	15877	19	15877	3999	-999999	179592	-3	175819	0	Run2Proc	1	1	1	RunList	3	OfficeLarge	8000	0	89850	0	89850	-1	89850	0	E2OfficeLargeBlockProc	n/a	n/a	n/a	3.0	1.0	3.0	n/a	n/a	n/a	n/a	n/a	n/a	n/a	n/a	n/a	Run2BlockList	5	n/a	n/a	n/a	n/a	n/a	n/a	n/a	n/a	n/a	n/a	n/a	n/a	n/a	n/a	n/a	n/a	n/a	n/a	n/a	n/a	n/a	n/a	n/a	n/a	n/a	n/a	n/a	n/a	n/a	n/a	n/a	n/a	n/a	n/a	n/a	n/a	n/a	n/a	n/a	n/a	n/a	n/a	n/a	n/a	n/a	n/a	n/a	n/a	n/a	n/a	n/a	n/a	n/a	n/a	n/a	n/a	n/a	n/a	n/a	n/a	n/a	n/a	n/a	5.0	1.0	5.0	n/a	n/a	n/a	n/a	n/a	n/a	n/a	n/a	n/a	n/a	n/a	n/a	n/a	n/a	n/a	n/a	n/a	n/a	n/a	n/a	n/a	n/a	n/a	n/a	E2_05.jpg	500	0	86352	-1	86352	0	TrialProc1	E2OfficeLargeBlockList	2500	0	83853	0	83853	0	83853	2499	d	1132	84985	67.977
71	2.5	Run5_VA_R01_R2proc	69	1	"<?xml version=""1.0""?>\n<Clock xmlns:dt=""urn:schemas-microsoft-com:datatypes""><Description dt:dt=""string"">E-Prime Primary Realtime Clock</Description><StartTime><Timestamp dt:dt=""int"">0</Timestamp><DateUtc dt:dt=""string"">2019-09-21T17:08:04Z</DateUtc></StartTime><FrequencyChanges><FrequencyChange><Frequency dt:dt=""r8"">3020380</Frequency><Timestamp dt:dt=""r8"">6234631571573</Timestamp><Current dt:dt=""r8"">0</Current><DateUtc dt:dt=""string"">2019-09-21T17:08:04Z</DateUtc></FrequencyChange></FrequencyChanges></Clock>\n"	Run5_VA_R01_R2proc-69-1	60.023	1.0.0.187	1	-1660327580	Professional	2.0.10.356	2.0.10.356	9/21/2019	9/21/2019 17:08	13:08:04	2.0.10.252	5	0	0	15877	19	15877	3999	-999999	179592	-3	175819	0	Run2Proc	1	1	1	RunList	3	OfficeLarge	8000	0	89850	0	89850	-1	89850	0	E2OfficeLargeBlockProc	n/a	n/a	n/a	3.0	1.0	3.0	n/a	n/a	n/a	n/a	n/a	n/a	n/a	n/a	n/a	Run2BlockList	6	n/a	n/a	n/a	n/a	n/a	n/a	n/a	n/a	n/a	n/a	n/a	n/a	n/a	n/a	n/a	n/a	n/a	n/a	n/a	n/a	n/a	n/a	n/a	n/a	n/a	n/a	n/a	n/a	n/a	n/a	n/a	n/a	n/a	n/a	n/a	n/a	n/a	n/a	n/a	n/a	n/a	n/a	n/a	n/a	n/a	n/a	n/a	n/a	n/a	n/a	n/a	n/a	n/a	n/a	n/a	n/a	n/a	n/a	n/a	n/a	n/a	n/a	n/a	6.0	1.0	6.0	n/a	n/a	n/a	n/a	n/a	n/a	n/a	n/a	n/a	n/a	n/a	n/a	n/a	n/a	n/a	n/a	n/a	n/a	n/a	n/a	n/a	n/a	n/a	n/a	E2_06.jpg	500	0	89351	0	89351	0	TrialProc1	E2OfficeLargeBlockList	2500	1	86852	1	86852	-1	86851	2500	d	989	87840	70.975
82	2.5	Run5_VA_R01_R2proc	69	1	"<?xml version=""1.0""?>\n<Clock xmlns:dt=""urn:schemas-microsoft-com:datatypes""><Description dt:dt=""string"">E-Prime Primary Realtime Clock</Description><StartTime><Timestamp dt:dt=""int"">0</Timestamp><DateUtc dt:dt=""string"">2019-09-21T17:08:04Z</DateUtc></StartTime><FrequencyChanges><FrequencyChange><Frequency dt:dt=""r8"">3020380</Frequency><Timestamp dt:dt=""r8"">6234631571573</Timestamp><Current dt:dt=""r8"">0</Current><DateUtc dt:dt=""string"">2019-09-21T17:08:04Z</DateUtc></FrequencyChange></FrequencyChanges></Clock>\n"	Run5_VA_R01_R2proc-69-1	60.023	1.0.0.187	1	-1660327580	Professional	2.0.10.356	2.0.10.356	9/21/2019	9/21/2019 17:08	13:08:04	2.0.10.252	5	0	0	15877	19	15877	3999	-999999	179592	-3	175819	0	Run2Proc	1	1	1	RunList	4	LowLarge	8000	0	115841	0	115841	0	115841	0	C2LowLargeEDBlockProc	n/a	n/a	n/a	4.0	1.0	4.0	n/a	n/a	n/a	n/a	n/a	n/a	n/a	n/a	n/a	Run2BlockList	1	n/a	n/a	n/a	n/a	n/a	n/a	n/a	n/a	n/a	n/a	n/a	n/a	n/a	n/a	n/a	n/a	n/a	n/a	n/a	n/a	n/a	n/a	n/a	n/a	n/a	n/a	n/a	n/a	n/a	n/a	n/a	n/a	n/a	1.0	1.0	1.0	n/a	n/a	n/a	n/a	n/a	n/a	n/a	n/a	n/a	n/a	n/a	n/a	n/a	n/a	n/a	n/a	n/a	n/a	n/a	n/a	n/a	n/a	n/a	n/a	n/a	n/a	n/a	n/a	n/a	n/a	n/a	n/a	n/a	n/a	n/a	n/a	n/a	n/a	n/a	n/a	n/a	n/a	n/a	n/a	n/a	n/a	n/a	n/a	n/a	n/a	n/a	n/a	n/a	n/a	C2_01.jpg	500	0	100347	0	100347	0	TrialProc1	C2LowLargeEDBlockList	2500	1	97848	1	97848	-3	97847	2500	n/a	0	0	81.971
85	2.5	Run5_VA_R01_R2proc	69	1	"<?xml version=""1.0""?>\n<Clock xmlns:dt=""urn:schemas-microsoft-com:datatypes""><Description dt:dt=""string"">E-Prime Primary Realtime Clock</Description><StartTime><Timestamp dt:dt=""int"">0</Timestamp><DateUtc dt:dt=""string"">2019-09-21T17:08:04Z</DateUtc></StartTime><FrequencyChanges><FrequencyChange><Frequency dt:dt=""r8"">3020380</Frequency><Timestamp dt:dt=""r8"">6234631571573</Timestamp><Current dt:dt=""r8"">0</Current><DateUtc dt:dt=""string"">2019-09-21T17:08:04Z</DateUtc></FrequencyChange></FrequencyChanges></Clock>\n"	Run5_VA_R01_R2proc-69-1	60.023	1.0.0.187	1	-1660327580	Professional	2.0.10.356	2.0.10.356	9/21/2019	9/21/2019 17:08	13:08:04	2.0.10.252	5	0	0	15877	19	15877	3999	-999999	179592	-3	175819	0	Run2Proc	1	1	1	RunList	4	LowLarge	8000	0	115841	0	115841	0	115841	0	C2LowLargeEDBlockProc	n/a	n/a	n/a	4.0	1.0	4.0	n/a	n/a	n/a	n/a	n/a	n/a	n/a	n/a	n/a	Run2BlockList	2	n/a	n/a	n/a	n/a	n/a	n/a	n/a	n/a	n/a	n/a	n/a	n/a	n/a	n/a	n/a	n/a	n/a	n/a	n/a	n/a	n/a	n/a	n/a	n/a	n/a	n/a	n/a	n/a	n/a	n/a	n/a	n/a	n/a	2.0	1.0	2.0	n/a	n/a	n/a	n/a	n/a	n/a	n/a	n/a	n/a	n/a	n/a	n/a	n/a	n/a	n/a	n/a	n/a	n/a	n/a	n/a	n/a	n/a	n/a	n/a	n/a	n/a	n/a	n/a	n/a	n/a	n/a	n/a	n/a	n/a	n/a	n/a	n/a	n/a	n/a	n/a	n/a	n/a	n/a	n/a	n/a	n/a	n/a	n/a	n/a	n/a	n/a	n/a	n/a	n/a	C2_02.jpg	500	1	103346	-1	103345	0	TrialProc1	C2LowLargeEDBlockList	2500	0	100846	0	100846	-1	100846	2499	d	1474	102320	84.97
88	2.5	Run5_VA_R01_R2proc	69	1	"<?xml version=""1.0""?>\n<Clock xmlns:dt=""urn:schemas-microsoft-com:datatypes""><Description dt:dt=""string"">E-Prime Primary Realtime Clock</Description><StartTime><Timestamp dt:dt=""int"">0</Timestamp><DateUtc dt:dt=""string"">2019-09-21T17:08:04Z</DateUtc></StartTime><FrequencyChanges><FrequencyChange><Frequency dt:dt=""r8"">3020380</Frequency><Timestamp dt:dt=""r8"">6234631571573</Timestamp><Current dt:dt=""r8"">0</Current><DateUtc dt:dt=""string"">2019-09-21T17:08:04Z</DateUtc></FrequencyChange></FrequencyChanges></Clock>\n"	Run5_VA_R01_R2proc-69-1	60.023	1.0.0.187	1	-1660327580	Professional	2.0.10.356	2.0.10.356	9/21/2019	9/21/2019 17:08	13:08:04	2.0.10.252	5	0	0	15877	19	15877	3999	-999999	179592	-3	175819	0	Run2Proc	1	1	1	RunList	4	LowLarge	8000	0	115841	0	115841	0	115841	0	C2LowLargeEDBlockProc	n/a	n/a	n/a	4.0	1.0	4.0	n/a	n/a	n/a	n/a	n/a	n/a	n/a	n/a	n/a	Run2BlockList	3	n/a	n/a	n/a	n/a	n/a	n/a	n/a	n/a	n/a	n/a	n/a	n/a	n/a	n/a	n/a	n/a	n/a	n/a	n/a	n/a	n/a	n/a	n/a	n/a	n/a	n/a	n/a	n/a	n/a	n/a	n/a	n/a	n/a	3.0	1.0	3.0	n/a	n/a	n/a	n/a	n/a	n/a	n/a	n/a	n/a	n/a	n/a	n/a	n/a	n/a	n/a	n/a	n/a	n/a	n/a	n/a	n/a	n/a	n/a	n/a	n/a	n/a	n/a	n/a	n/a	n/a	n/a	n/a	n/a	n/a	n/a	n/a	n/a	n/a	n/a	n/a	n/a	n/a	n/a	n/a	n/a	n/a	n/a	n/a	n/a	n/a	n/a	n/a	n/a	n/a	C2_03.jpg	500	0	106344	-1	106344	0	TrialProc1	C2LowLargeEDBlockList	2500	0	103845	0	103845	0	103845	2499	d	1043	104888	87.969
91	2.5	Run5_VA_R01_R2proc	69	1	"<?xml version=""1.0""?>\n<Clock xmlns:dt=""urn:schemas-microsoft-com:datatypes""><Description dt:dt=""string"">E-Prime Primary Realtime Clock</Description><StartTime><Timestamp dt:dt=""int"">0</Timestamp><DateUtc dt:dt=""string"">2019-09-21T17:08:04Z</DateUtc></StartTime><FrequencyChanges><FrequencyChange><Frequency dt:dt=""r8"">3020380</Frequency><Timestamp dt:dt=""r8"">6234631571573</Timestamp><Current dt:dt=""r8"">0</Current><DateUtc dt:dt=""string"">2019-09-21T17:08:04Z</DateUtc></FrequencyChange></FrequencyChanges></Clock>\n"	Run5_VA_R01_R2proc-69-1	60.023	1.0.0.187	1	-1660327580	Professional	2.0.10.356	2.0.10.356	9/21/2019	9/21/2019 17:08	13:08:04	2.0.10.252	5	0	0	15877	19	15877	3999	-999999	179592	-3	175819	0	Run2Proc	1	1	1	RunList	4	LowLarge	8000	0	115841	0	115841	0	115841	0	C2LowLargeEDBlockProc	n/a	n/a	n/a	4.0	1.0	4.0	n/a	n/a	n/a	n/a	n/a	n/a	n/a	n/a	n/a	Run2BlockList	4	n/a	n/a	n/a	n/a	n/a	n/a	n/a	n/a	n/a	n/a	n/a	n/a	n/a	n/a	n/a	n/a	n/a	n/a	n/a	n/a	n/a	n/a	n/a	n/a	n/a	n/a	n/a	n/a	n/a	n/a	n/a	n/a	n/a	4.0	1.0	4.0	n/a	n/a	n/a	n/a	n/a	n/a	n/a	n/a	n/a	n/a	n/a	n/a	n/a	n/a	n/a	n/a	n/a	n/a	n/a	n/a	n/a	n/a	n/a	n/a	n/a	n/a	n/a	n/a	n/a	n/a	n/a	n/a	n/a	n/a	n/a	n/a	n/a	n/a	n/a	n/a	n/a	n/a	n/a	n/a	n/a	n/a	n/a	n/a	n/a	n/a	n/a	n/a	n/a	n/a	C2_04.jpg	500	0	109343	-1	109343	0	TrialProc1	C2LowLargeEDBlockList	2500	0	106844	0	106844	0	106844	2499	d	908	107752	90.968
94	2.5	Run5_VA_R01_R2proc	69	1	"<?xml version=""1.0""?>\n<Clock xmlns:dt=""urn:schemas-microsoft-com:datatypes""><Description dt:dt=""string"">E-Prime Primary Realtime Clock</Description><StartTime><Timestamp dt:dt=""int"">0</Timestamp><DateUtc dt:dt=""string"">2019-09-21T17:08:04Z</DateUtc></StartTime><FrequencyChanges><FrequencyChange><Frequency dt:dt=""r8"">3020380</Frequency><Timestamp dt:dt=""r8"">6234631571573</Timestamp><Current dt:dt=""r8"">0</Current><DateUtc dt:dt=""string"">2019-09-21T17:08:04Z</DateUtc></FrequencyChange></FrequencyChanges></Clock>\n"	Run5_VA_R01_R2proc-69-1	60.023	1.0.0.187	1	-1660327580	Professional	2.0.10.356	2.0.10.356	9/21/2019	9/21/2019 17:08	13:08:04	2.0.10.252	5	0	0	15877	19	15877	3999	-999999	179592	-3	175819	0	Run2Proc	1	1	1	RunList	4	LowLarge	8000	0	115841	0	115841	0	115841	0	C2LowLargeEDBlockProc	n/a	n/a	n/a	4.0	1.0	4.0	n/a	n/a	n/a	n/a	n/a	n/a	n/a	n/a	n/a	Run2BlockList	5	n/a	n/a	n/a	n/a	n/a	n/a	n/a	n/a	n/a	n/a	n/a	n/a	n/a	n/a	n/a	n/a	n/a	n/a	n/a	n/a	n/a	n/a	n/a	n/a	n/a	n/a	n/a	n/a	n/a	n/a	n/a	n/a	n/a	5.0	1.0	5.0	n/a	n/a	n/a	n/a	n/a	n/a	n/a	n/a	n/a	n/a	n/a	n/a	n/a	n/a	n/a	n/a	n/a	n/a	n/a	n/a	n/a	n/a	n/a	n/a	n/a	n/a	n/a	n/a	n/a	n/a	n/a	n/a	n/a	n/a	n/a	n/a	n/a	n/a	n/a	n/a	n/a	n/a	n/a	n/a	n/a	n/a	n/a	n/a	n/a	n/a	n/a	n/a	n/a	n/a	C2_05.jpg	500	0	112342	-1	112342	0	TrialProc1	C2LowLargeEDBlockList	2500	0	109843	0	109843	0	109843	2499	c	1717	111560	93.967
97	2.5	Run5_VA_R01_R2proc	69	1	"<?xml version=""1.0""?>\n<Clock xmlns:dt=""urn:schemas-microsoft-com:datatypes""><Description dt:dt=""string"">E-Prime Primary Realtime Clock</Description><StartTime><Timestamp dt:dt=""int"">0</Timestamp><DateUtc dt:dt=""string"">2019-09-21T17:08:04Z</DateUtc></StartTime><FrequencyChanges><FrequencyChange><Frequency dt:dt=""r8"">3020380</Frequency><Timestamp dt:dt=""r8"">6234631571573</Timestamp><Current dt:dt=""r8"">0</Current><DateUtc dt:dt=""string"">2019-09-21T17:08:04Z</DateUtc></FrequencyChange></FrequencyChanges></Clock>\n"	Run5_VA_R01_R2proc-69-1	60.023	1.0.0.187	1	-1660327580	Professional	2.0.10.356	2.0.10.356	9/21/2019	9/21/2019 17:08	13:08:04	2.0.10.252	5	0	0	15877	19	15877	3999	-999999	179592	-3	175819	0	Run2Proc	1	1	1	RunList	4	LowLarge	8000	0	115841	0	115841	0	115841	0	C2LowLargeEDBlockProc	n/a	n/a	n/a	4.0	1.0	4.0	n/a	n/a	n/a	n/a	n/a	n/a	n/a	n/a	n/a	Run2BlockList	6	n/a	n/a	n/a	n/a	n/a	n/a	n/a	n/a	n/a	n/a	n/a	n/a	n/a	n/a	n/a	n/a	n/a	n/a	n/a	n/a	n/a	n/a	n/a	n/a	n/a	n/a	n/a	n/a	n/a	n/a	n/a	n/a	n/a	6.0	1.0	6.0	n/a	n/a	n/a	n/a	n/a	n/a	n/a	n/a	n/a	n/a	n/a	n/a	n/a	n/a	n/a	n/a	n/a	n/a	n/a	n/a	n/a	n/a	n/a	n/a	n/a	n/a	n/a	n/a	n/a	n/a	n/a	n/a	n/a	n/a	n/a	n/a	n/a	n/a	n/a	n/a	n/a	n/a	n/a	n/a	n/a	n/a	n/a	n/a	n/a	n/a	n/a	n/a	n/a	n/a	C2_06.jpg	500	0	115341	-1	115341	0	TrialProc1	C2LowLargeEDBlockList	2500	0	112842	0	112842	0	112842	2499	d	2262	115104	96.966
108	2.5	Run5_VA_R01_R2proc	69	1	"<?xml version=""1.0""?>\n<Clock xmlns:dt=""urn:schemas-microsoft-com:datatypes""><Description dt:dt=""string"">E-Prime Primary Realtime Clock</Description><StartTime><Timestamp dt:dt=""int"">0</Timestamp><DateUtc dt:dt=""string"">2019-09-21T17:08:04Z</DateUtc></StartTime><FrequencyChanges><FrequencyChange><Frequency dt:dt=""r8"">3020380</Frequency><Timestamp dt:dt=""r8"">6234631571573</Timestamp><Current dt:dt=""r8"">0</Current><DateUtc dt:dt=""string"">2019-09-21T17:08:04Z</DateUtc></FrequencyChange></FrequencyChanges></Clock>\n"	Run5_VA_R01_R2proc-69-1	60.023	1.0.0.187	1	-1660327580	Professional	2.0.10.356	2.0.10.356	9/21/2019	9/21/2019 17:08	13:08:04	2.0.10.252	5	0	0	15877	19	15877	3999	-999999	179592	-3	175819	0	Run2Proc	1	1	1	RunList	5	LowSmall	8000	0	141832	0	141832	0	141832	0	D2LowSmallEDBlockProc	n/a	n/a	n/a	5.0	1.0	5.0	n/a	n/a	n/a	n/a	n/a	n/a	n/a	n/a	n/a	Run2BlockList	1	n/a	n/a	n/a	n/a	n/a	n/a	n/a	n/a	n/a	n/a	n/a	n/a	n/a	n/a	n/a	n/a	n/a	n/a	n/a	n/a	n/a	n/a	n/a	n/a	n/a	n/a	n/a	n/a	n/a	n/a	n/a	n/a	n/a	n/a	n/a	n/a	n/a	n/a	n/a	n/a	n/a	n/a	n/a	n/a	n/a	n/a	n/a	n/a	1.0	1.0	1.0	n/a	n/a	n/a	n/a	n/a	n/a	n/a	n/a	n/a	n/a	n/a	n/a	n/a	n/a	n/a	n/a	n/a	n/a	n/a	n/a	n/a	n/a	n/a	n/a	n/a	n/a	n/a	n/a	n/a	n/a	n/a	n/a	n/a	n/a	n/a	n/a	n/a	n/a	n/a	D2_01.jpg	500	0	126337	-1	126337	0	TrialProc1	D2HighLargeEDBlockList	2500	0	123838	0	123838	-3	123838	2499	d	2042	125880	107.962
111	2.5	Run5_VA_R01_R2proc	69	1	"<?xml version=""1.0""?>\n<Clock xmlns:dt=""urn:schemas-microsoft-com:datatypes""><Description dt:dt=""string"">E-Prime Primary Realtime Clock</Description><StartTime><Timestamp dt:dt=""int"">0</Timestamp><DateUtc dt:dt=""string"">2019-09-21T17:08:04Z</DateUtc></StartTime><FrequencyChanges><FrequencyChange><Frequency dt:dt=""r8"">3020380</Frequency><Timestamp dt:dt=""r8"">6234631571573</Timestamp><Current dt:dt=""r8"">0</Current><DateUtc dt:dt=""string"">2019-09-21T17:08:04Z</DateUtc></FrequencyChange></FrequencyChanges></Clock>\n"	Run5_VA_R01_R2proc-69-1	60.023	1.0.0.187	1	-1660327580	Professional	2.0.10.356	2.0.10.356	9/21/2019	9/21/2019 17:08	13:08:04	2.0.10.252	5	0	0	15877	19	15877	3999	-999999	179592	-3	175819	0	Run2Proc	1	1	1	RunList	5	LowSmall	8000	0	141832	0	141832	0	141832	0	D2LowSmallEDBlockProc	n/a	n/a	n/a	5.0	1.0	5.0	n/a	n/a	n/a	n/a	n/a	n/a	n/a	n/a	n/a	Run2BlockList	2	n/a	n/a	n/a	n/a	n/a	n/a	n/a	n/a	n/a	n/a	n/a	n/a	n/a	n/a	n/a	n/a	n/a	n/a	n/a	n/a	n/a	n/a	n/a	n/a	n/a	n/a	n/a	n/a	n/a	n/a	n/a	n/a	n/a	n/a	n/a	n/a	n/a	n/a	n/a	n/a	n/a	n/a	n/a	n/a	n/a	n/a	n/a	n/a	2.0	1.0	2.0	n/a	n/a	n/a	n/a	n/a	n/a	n/a	n/a	n/a	n/a	n/a	n/a	n/a	n/a	n/a	n/a	n/a	n/a	n/a	n/a	n/a	n/a	n/a	n/a	n/a	n/a	n/a	n/a	n/a	n/a	n/a	n/a	n/a	n/a	n/a	n/a	n/a	n/a	n/a	D2_02.jpg	500	0	129336	-1	129336	0	TrialProc1	D2HighLargeEDBlockList	2500	0	126837	0	126837	0	126837	2499	d	859	127696	110.961
114	2.5	Run5_VA_R01_R2proc	69	1	"<?xml version=""1.0""?>\n<Clock xmlns:dt=""urn:schemas-microsoft-com:datatypes""><Description dt:dt=""string"">E-Prime Primary Realtime Clock</Description><StartTime><Timestamp dt:dt=""int"">0</Timestamp><DateUtc dt:dt=""string"">2019-09-21T17:08:04Z</DateUtc></StartTime><FrequencyChanges><FrequencyChange><Frequency dt:dt=""r8"">3020380</Frequency><Timestamp dt:dt=""r8"">6234631571573</Timestamp><Current dt:dt=""r8"">0</Current><DateUtc dt:dt=""string"">2019-09-21T17:08:04Z</DateUtc></FrequencyChange></FrequencyChanges></Clock>\n"	Run5_VA_R01_R2proc-69-1	60.023	1.0.0.187	1	-1660327580	Professional	2.0.10.356	2.0.10.356	9/21/2019	9/21/2019 17:08	13:08:04	2.0.10.252	5	0	0	15877	19	15877	3999	-999999	179592	-3	175819	0	Run2Proc	1	1	1	RunList	5	LowSmall	8000	0	141832	0	141832	0	141832	0	D2LowSmallEDBlockProc	n/a	n/a	n/a	5.0	1.0	5.0	n/a	n/a	n/a	n/a	n/a	n/a	n/a	n/a	n/a	Run2BlockList	3	n/a	n/a	n/a	n/a	n/a	n/a	n/a	n/a	n/a	n/a	n/a	n/a	n/a	n/a	n/a	n/a	n/a	n/a	n/a	n/a	n/a	n/a	n/a	n/a	n/a	n/a	n/a	n/a	n/a	n/a	n/a	n/a	n/a	n/a	n/a	n/a	n/a	n/a	n/a	n/a	n/a	n/a	n/a	n/a	n/a	n/a	n/a	n/a	3.0	1.0	3.0	n/a	n/a	n/a	n/a	n/a	n/a	n/a	n/a	n/a	n/a	n/a	n/a	n/a	n/a	n/a	n/a	n/a	n/a	n/a	n/a	n/a	n/a	n/a	n/a	n/a	n/a	n/a	n/a	n/a	n/a	n/a	n/a	n/a	n/a	n/a	n/a	n/a	n/a	n/a	D2_03.jpg	500	0	132335	-1	132335	0	TrialProc1	D2HighLargeEDBlockList	2500	0	129836	0	129836	0	129836	2499	d	796	130632	113.96
117	2.5	Run5_VA_R01_R2proc	69	1	"<?xml version=""1.0""?>\n<Clock xmlns:dt=""urn:schemas-microsoft-com:datatypes""><Description dt:dt=""string"">E-Prime Primary Realtime Clock</Description><StartTime><Timestamp dt:dt=""int"">0</Timestamp><DateUtc dt:dt=""string"">2019-09-21T17:08:04Z</DateUtc></StartTime><FrequencyChanges><FrequencyChange><Frequency dt:dt=""r8"">3020380</Frequency><Timestamp dt:dt=""r8"">6234631571573</Timestamp><Current dt:dt=""r8"">0</Current><DateUtc dt:dt=""string"">2019-09-21T17:08:04Z</DateUtc></FrequencyChange></FrequencyChanges></Clock>\n"	Run5_VA_R01_R2proc-69-1	60.023	1.0.0.187	1	-1660327580	Professional	2.0.10.356	2.0.10.356	9/21/2019	9/21/2019 17:08	13:08:04	2.0.10.252	5	0	0	15877	19	15877	3999	-999999	179592	-3	175819	0	Run2Proc	1	1	1	RunList	5	LowSmall	8000	0	141832	0	141832	0	141832	0	D2LowSmallEDBlockProc	n/a	n/a	n/a	5.0	1.0	5.0	n/a	n/a	n/a	n/a	n/a	n/a	n/a	n/a	n/a	Run2BlockList	4	n/a	n/a	n/a	n/a	n/a	n/a	n/a	n/a	n/a	n/a	n/a	n/a	n/a	n/a	n/a	n/a	n/a	n/a	n/a	n/a	n/a	n/a	n/a	n/a	n/a	n/a	n/a	n/a	n/a	n/a	n/a	n/a	n/a	n/a	n/a	n/a	n/a	n/a	n/a	n/a	n/a	n/a	n/a	n/a	n/a	n/a	n/a	n/a	4.0	1.0	4.0	n/a	n/a	n/a	n/a	n/a	n/a	n/a	n/a	n/a	n/a	n/a	n/a	n/a	n/a	n/a	n/a	n/a	n/a	n/a	n/a	n/a	n/a	n/a	n/a	n/a	n/a	n/a	n/a	n/a	n/a	n/a	n/a	n/a	n/a	n/a	n/a	n/a	n/a	n/a	D2_04.jpg	500	0	135334	-1	135334	0	TrialProc1	D2HighLargeEDBlockList	2500	0	132835	0	132835	0	132835	2499	d	725	133560	116.959
120	2.5	Run5_VA_R01_R2proc	69	1	"<?xml version=""1.0""?>\n<Clock xmlns:dt=""urn:schemas-microsoft-com:datatypes""><Description dt:dt=""string"">E-Prime Primary Realtime Clock</Description><StartTime><Timestamp dt:dt=""int"">0</Timestamp><DateUtc dt:dt=""string"">2019-09-21T17:08:04Z</DateUtc></StartTime><FrequencyChanges><FrequencyChange><Frequency dt:dt=""r8"">3020380</Frequency><Timestamp dt:dt=""r8"">6234631571573</Timestamp><Current dt:dt=""r8"">0</Current><DateUtc dt:dt=""string"">2019-09-21T17:08:04Z</DateUtc></FrequencyChange></FrequencyChanges></Clock>\n"	Run5_VA_R01_R2proc-69-1	60.023	1.0.0.187	1	-1660327580	Professional	2.0.10.356	2.0.10.356	9/21/2019	9/21/2019 17:08	13:08:04	2.0.10.252	5	0	0	15877	19	15877	3999	-999999	179592	-3	175819	0	Run2Proc	1	1	1	RunList	5	LowSmall	8000	0	141832	0	141832	0	141832	0	D2LowSmallEDBlockProc	n/a	n/a	n/a	5.0	1.0	5.0	n/a	n/a	n/a	n/a	n/a	n/a	n/a	n/a	n/a	Run2BlockList	5	n/a	n/a	n/a	n/a	n/a	n/a	n/a	n/a	n/a	n/a	n/a	n/a	n/a	n/a	n/a	n/a	n/a	n/a	n/a	n/a	n/a	n/a	n/a	n/a	n/a	n/a	n/a	n/a	n/a	n/a	n/a	n/a	n/a	n/a	n/a	n/a	n/a	n/a	n/a	n/a	n/a	n/a	n/a	n/a	n/a	n/a	n/a	n/a	5.0	1.0	5.0	n/a	n/a	n/a	n/a	n/a	n/a	n/a	n/a	n/a	n/a	n/a	n/a	n/a	n/a	n/a	n/a	n/a	n/a	n/a	n/a	n/a	n/a	n/a	n/a	n/a	n/a	n/a	n/a	n/a	n/a	n/a	n/a	n/a	n/a	n/a	n/a	n/a	n/a	n/a	D2_05.jpg	500	0	138333	-1	138333	0	TrialProc1	D2HighLargeEDBlockList	2500	0	135834	0	135834	0	135834	2499	d	742	136576	119.958
123	2.5	Run5_VA_R01_R2proc	69	1	"<?xml version=""1.0""?>\n<Clock xmlns:dt=""urn:schemas-microsoft-com:datatypes""><Description dt:dt=""string"">E-Prime Primary Realtime Clock</Description><StartTime><Timestamp dt:dt=""int"">0</Timestamp><DateUtc dt:dt=""string"">2019-09-21T17:08:04Z</DateUtc></StartTime><FrequencyChanges><FrequencyChange><Frequency dt:dt=""r8"">3020380</Frequency><Timestamp dt:dt=""r8"">6234631571573</Timestamp><Current dt:dt=""r8"">0</Current><DateUtc dt:dt=""string"">2019-09-21T17:08:04Z</DateUtc></FrequencyChange></FrequencyChanges></Clock>\n"	Run5_VA_R01_R2proc-69-1	60.023	1.0.0.187	1	-1660327580	Professional	2.0.10.356	2.0.10.356	9/21/2019	9/21/2019 17:08	13:08:04	2.0.10.252	5	0	0	15877	19	15877	3999	-999999	179592	-3	175819	0	Run2Proc	1	1	1	RunList	5	LowSmall	8000	0	141832	0	141832	0	141832	0	D2LowSmallEDBlockProc	n/a	n/a	n/a	5.0	1.0	5.0	n/a	n/a	n/a	n/a	n/a	n/a	n/a	n/a	n/a	Run2BlockList	6	n/a	n/a	n/a	n/a	n/a	n/a	n/a	n/a	n/a	n/a	n/a	n/a	n/a	n/a	n/a	n/a	n/a	n/a	n/a	n/a	n/a	n/a	n/a	n/a	n/a	n/a	n/a	n/a	n/a	n/a	n/a	n/a	n/a	n/a	n/a	n/a	n/a	n/a	n/a	n/a	n/a	n/a	n/a	n/a	n/a	n/a	n/a	n/a	6.0	1.0	6.0	n/a	n/a	n/a	n/a	n/a	n/a	n/a	n/a	n/a	n/a	n/a	n/a	n/a	n/a	n/a	n/a	n/a	n/a	n/a	n/a	n/a	n/a	n/a	n/a	n/a	n/a	n/a	n/a	n/a	n/a	n/a	n/a	n/a	n/a	n/a	n/a	n/a	n/a	n/a	D2_06.jpg	500	0	141332	-1	141332	0	TrialProc1	D2HighLargeEDBlockList	2500	0	138833	0	138833	0	138833	2499	d	991	139824	122.957
134	2.5	Run5_VA_R01_R2proc	69	1	"<?xml version=""1.0""?>\n<Clock xmlns:dt=""urn:schemas-microsoft-com:datatypes""><Description dt:dt=""string"">E-Prime Primary Realtime Clock</Description><StartTime><Timestamp dt:dt=""int"">0</Timestamp><DateUtc dt:dt=""string"">2019-09-21T17:08:04Z</DateUtc></StartTime><FrequencyChanges><FrequencyChange><Frequency dt:dt=""r8"">3020380</Frequency><Timestamp dt:dt=""r8"">6234631571573</Timestamp><Current dt:dt=""r8"">0</Current><DateUtc dt:dt=""string"">2019-09-21T17:08:04Z</DateUtc></FrequencyChange></FrequencyChanges></Clock>\n"	Run5_VA_R01_R2proc-69-1	60.023	1.0.0.187	1	-1660327580	Professional	2.0.10.356	2.0.10.356	9/21/2019	9/21/2019 17:08	13:08:04	2.0.10.252	5	0	0	15877	19	15877	3999	-999999	179592	-3	175819	0	Run2Proc	1	1	1	RunList	6	OfficeSmall	8000	0	167822	0	167822	0	167822	0	F2OfficeSmallBlockProc	n/a	n/a	n/a	6.0	1.0	6.0	n/a	n/a	n/a	n/a	n/a	n/a	n/a	n/a	n/a	Run2BlockList	1	n/a	n/a	n/a	n/a	n/a	n/a	n/a	n/a	n/a	n/a	n/a	n/a	n/a	n/a	n/a	n/a	n/a	n/a	n/a	n/a	n/a	n/a	n/a	n/a	n/a	n/a	n/a	n/a	n/a	n/a	n/a	n/a	n/a	n/a	n/a	n/a	n/a	n/a	n/a	n/a	n/a	n/a	n/a	n/a	n/a	n/a	n/a	n/a	n/a	n/a	n/a	n/a	n/a	n/a	n/a	n/a	n/a	n/a	n/a	n/a	n/a	n/a	n/a	n/a	n/a	n/a	n/a	n/a	n/a	n/a	n/a	n/a	n/a	n/a	n/a	n/a	n/a	n/a	1.0	1.0	1.0	n/a	n/a	n/a	n/a	n/a	n/a	n/a	n/a	n/a	F2_01.jpg	500	0	152328	-1	152328	0	TrialProc1	F2OfficeSmallBlockList	2500	0	149829	0	149829	-3	149829	2499	n/a	0	0	133.953
137	2.5	Run5_VA_R01_R2proc	69	1	"<?xml version=""1.0""?>\n<Clock xmlns:dt=""urn:schemas-microsoft-com:datatypes""><Description dt:dt=""string"">E-Prime Primary Realtime Clock</Description><StartTime><Timestamp dt:dt=""int"">0</Timestamp><DateUtc dt:dt=""string"">2019-09-21T17:08:04Z</DateUtc></StartTime><FrequencyChanges><FrequencyChange><Frequency dt:dt=""r8"">3020380</Frequency><Timestamp dt:dt=""r8"">6234631571573</Timestamp><Current dt:dt=""r8"">0</Current><DateUtc dt:dt=""string"">2019-09-21T17:08:04Z</DateUtc></FrequencyChange></FrequencyChanges></Clock>\n"	Run5_VA_R01_R2proc-69-1	60.023	1.0.0.187	1	-1660327580	Professional	2.0.10.356	2.0.10.356	9/21/2019	9/21/2019 17:08	13:08:04	2.0.10.252	5	0	0	15877	19	15877	3999	-999999	179592	-3	175819	0	Run2Proc	1	1	1	RunList	6	OfficeSmall	8000	0	167822	0	167822	0	167822	0	F2OfficeSmallBlockProc	n/a	n/a	n/a	6.0	1.0	6.0	n/a	n/a	n/a	n/a	n/a	n/a	n/a	n/a	n/a	Run2BlockList	2	n/a	n/a	n/a	n/a	n/a	n/a	n/a	n/a	n/a	n/a	n/a	n/a	n/a	n/a	n/a	n/a	n/a	n/a	n/a	n/a	n/a	n/a	n/a	n/a	n/a	n/a	n/a	n/a	n/a	n/a	n/a	n/a	n/a	n/a	n/a	n/a	n/a	n/a	n/a	n/a	n/a	n/a	n/a	n/a	n/a	n/a	n/a	n/a	n/a	n/a	n/a	n/a	n/a	n/a	n/a	n/a	n/a	n/a	n/a	n/a	n/a	n/a	n/a	n/a	n/a	n/a	n/a	n/a	n/a	n/a	n/a	n/a	n/a	n/a	n/a	n/a	n/a	n/a	2.0	1.0	2.0	n/a	n/a	n/a	n/a	n/a	n/a	n/a	n/a	n/a	F2_02.jpg	500	0	155327	-1	155327	0	TrialProc1	F2OfficeSmallBlockList	2500	0	152828	0	152828	0	152828	2499	d	124	152952	136.952
140	2.5	Run5_VA_R01_R2proc	69	1	"<?xml version=""1.0""?>\n<Clock xmlns:dt=""urn:schemas-microsoft-com:datatypes""><Description dt:dt=""string"">E-Prime Primary Realtime Clock</Description><StartTime><Timestamp dt:dt=""int"">0</Timestamp><DateUtc dt:dt=""string"">2019-09-21T17:08:04Z</DateUtc></StartTime><FrequencyChanges><FrequencyChange><Frequency dt:dt=""r8"">3020380</Frequency><Timestamp dt:dt=""r8"">6234631571573</Timestamp><Current dt:dt=""r8"">0</Current><DateUtc dt:dt=""string"">2019-09-21T17:08:04Z</DateUtc></FrequencyChange></FrequencyChanges></Clock>\n"	Run5_VA_R01_R2proc-69-1	60.023	1.0.0.187	1	-1660327580	Professional	2.0.10.356	2.0.10.356	9/21/2019	9/21/2019 17:08	13:08:04	2.0.10.252	5	0	0	15877	19	15877	3999	-999999	179592	-3	175819	0	Run2Proc	1	1	1	RunList	6	OfficeSmall	8000	0	167822	0	167822	0	167822	0	F2OfficeSmallBlockProc	n/a	n/a	n/a	6.0	1.0	6.0	n/a	n/a	n/a	n/a	n/a	n/a	n/a	n/a	n/a	Run2BlockList	3	n/a	n/a	n/a	n/a	n/a	n/a	n/a	n/a	n/a	n/a	n/a	n/a	n/a	n/a	n/a	n/a	n/a	n/a	n/a	n/a	n/a	n/a	n/a	n/a	n/a	n/a	n/a	n/a	n/a	n/a	n/a	n/a	n/a	n/a	n/a	n/a	n/a	n/a	n/a	n/a	n/a	n/a	n/a	n/a	n/a	n/a	n/a	n/a	n/a	n/a	n/a	n/a	n/a	n/a	n/a	n/a	n/a	n/a	n/a	n/a	n/a	n/a	n/a	n/a	n/a	n/a	n/a	n/a	n/a	n/a	n/a	n/a	n/a	n/a	n/a	n/a	n/a	n/a	3.0	1.0	3.0	n/a	n/a	n/a	n/a	n/a	n/a	n/a	n/a	n/a	F2_03.jpg	500	0	158326	0	158326	0	TrialProc1	F2OfficeSmallBlockList	2500	1	155827	1	155827	-1	155826	2500	n/a	0	0	139.95
143	2.5	Run5_VA_R01_R2proc	69	1	"<?xml version=""1.0""?>\n<Clock xmlns:dt=""urn:schemas-microsoft-com:datatypes""><Description dt:dt=""string"">E-Prime Primary Realtime Clock</Description><StartTime><Timestamp dt:dt=""int"">0</Timestamp><DateUtc dt:dt=""string"">2019-09-21T17:08:04Z</DateUtc></StartTime><FrequencyChanges><FrequencyChange><Frequency dt:dt=""r8"">3020380</Frequency><Timestamp dt:dt=""r8"">6234631571573</Timestamp><Current dt:dt=""r8"">0</Current><DateUtc dt:dt=""string"">2019-09-21T17:08:04Z</DateUtc></FrequencyChange></FrequencyChanges></Clock>\n"	Run5_VA_R01_R2proc-69-1	60.023	1.0.0.187	1	-1660327580	Professional	2.0.10.356	2.0.10.356	9/21/2019	9/21/2019 17:08	13:08:04	2.0.10.252	5	0	0	15877	19	15877	3999	-999999	179592	-3	175819	0	Run2Proc	1	1	1	RunList	6	OfficeSmall	8000	0	167822	0	167822	0	167822	0	F2OfficeSmallBlockProc	n/a	n/a	n/a	6.0	1.0	6.0	n/a	n/a	n/a	n/a	n/a	n/a	n/a	n/a	n/a	Run2BlockList	4	n/a	n/a	n/a	n/a	n/a	n/a	n/a	n/a	n/a	n/a	n/a	n/a	n/a	n/a	n/a	n/a	n/a	n/a	n/a	n/a	n/a	n/a	n/a	n/a	n/a	n/a	n/a	n/a	n/a	n/a	n/a	n/a	n/a	n/a	n/a	n/a	n/a	n/a	n/a	n/a	n/a	n/a	n/a	n/a	n/a	n/a	n/a	n/a	n/a	n/a	n/a	n/a	n/a	n/a	n/a	n/a	n/a	n/a	n/a	n/a	n/a	n/a	n/a	n/a	n/a	n/a	n/a	n/a	n/a	n/a	n/a	n/a	n/a	n/a	n/a	n/a	n/a	n/a	4.0	1.0	4.0	n/a	n/a	n/a	n/a	n/a	n/a	n/a	n/a	n/a	F2_04.jpg	500	0	161325	-1	161324	0	TrialProc1	F2OfficeSmallBlockList	2500	0	158825	0	158825	-1	158825	2499	d	2391	161216	142.949
146	2.5	Run5_VA_R01_R2proc	69	1	"<?xml version=""1.0""?>\n<Clock xmlns:dt=""urn:schemas-microsoft-com:datatypes""><Description dt:dt=""string"">E-Prime Primary Realtime Clock</Description><StartTime><Timestamp dt:dt=""int"">0</Timestamp><DateUtc dt:dt=""string"">2019-09-21T17:08:04Z</DateUtc></StartTime><FrequencyChanges><FrequencyChange><Frequency dt:dt=""r8"">3020380</Frequency><Timestamp dt:dt=""r8"">6234631571573</Timestamp><Current dt:dt=""r8"">0</Current><DateUtc dt:dt=""string"">2019-09-21T17:08:04Z</DateUtc></FrequencyChange></FrequencyChanges></Clock>\n"	Run5_VA_R01_R2proc-69-1	60.023	1.0.0.187	1	-1660327580	Professional	2.0.10.356	2.0.10.356	9/21/2019	9/21/2019 17:08	13:08:04	2.0.10.252	5	0	0	15877	19	15877	3999	-999999	179592	-3	175819	0	Run2Proc	1	1	1	RunList	6	OfficeSmall	8000	0	167822	0	167822	0	167822	0	F2OfficeSmallBlockProc	n/a	n/a	n/a	6.0	1.0	6.0	n/a	n/a	n/a	n/a	n/a	n/a	n/a	n/a	n/a	Run2BlockList	5	n/a	n/a	n/a	n/a	n/a	n/a	n/a	n/a	n/a	n/a	n/a	n/a	n/a	n/a	n/a	n/a	n/a	n/a	n/a	n/a	n/a	n/a	n/a	n/a	n/a	n/a	n/a	n/a	n/a	n/a	n/a	n/a	n/a	n/a	n/a	n/a	n/a	n/a	n/a	n/a	n/a	n/a	n/a	n/a	n/a	n/a	n/a	n/a	n/a	n/a	n/a	n/a	n/a	n/a	n/a	n/a	n/a	n/a	n/a	n/a	n/a	n/a	n/a	n/a	n/a	n/a	n/a	n/a	n/a	n/a	n/a	n/a	n/a	n/a	n/a	n/a	n/a	n/a	5.0	1.0	5.0	n/a	n/a	n/a	n/a	n/a	n/a	n/a	n/a	n/a	F2_05.jpg	500	0	164323	-1	164323	0	TrialProc1	F2OfficeSmallBlockList	2500	0	161824	0	161824	0	161824	2499	d	664	162488	145.948
149	2.5	Run5_VA_R01_R2proc	69	1	"<?xml version=""1.0""?>\n<Clock xmlns:dt=""urn:schemas-microsoft-com:datatypes""><Description dt:dt=""string"">E-Prime Primary Realtime Clock</Description><StartTime><Timestamp dt:dt=""int"">0</Timestamp><DateUtc dt:dt=""string"">2019-09-21T17:08:04Z</DateUtc></StartTime><FrequencyChanges><FrequencyChange><Frequency dt:dt=""r8"">3020380</Frequency><Timestamp dt:dt=""r8"">6234631571573</Timestamp><Current dt:dt=""r8"">0</Current><DateUtc dt:dt=""string"">2019-09-21T17:08:04Z</DateUtc></FrequencyChange></FrequencyChanges></Clock>\n"	Run5_VA_R01_R2proc-69-1	60.023	1.0.0.187	1	-1660327580	Professional	2.0.10.356	2.0.10.356	9/21/2019	9/21/2019 17:08	13:08:04	2.0.10.252	5	0	0	15877	19	15877	3999	-999999	179592	-3	175819	0	Run2Proc	1	1	1	RunList	6	OfficeSmall	8000	0	167822	0	167822	0	167822	0	F2OfficeSmallBlockProc	n/a	n/a	n/a	6.0	1.0	6.0	n/a	n/a	n/a	n/a	n/a	n/a	n/a	n/a	n/a	Run2BlockList	6	n/a	n/a	n/a	n/a	n/a	n/a	n/a	n/a	n/a	n/a	n/a	n/a	n/a	n/a	n/a	n/a	n/a	n/a	n/a	n/a	n/a	n/a	n/a	n/a	n/a	n/a	n/a	n/a	n/a	n/a	n/a	n/a	n/a	n/a	n/a	n/a	n/a	n/a	n/a	n/a	n/a	n/a	n/a	n/a	n/a	n/a	n/a	n/a	n/a	n/a	n/a	n/a	n/a	n/a	n/a	n/a	n/a	n/a	n/a	n/a	n/a	n/a	n/a	n/a	n/a	n/a	n/a	n/a	n/a	n/a	n/a	n/a	n/a	n/a	n/a	n/a	n/a	n/a	6.0	1.0	6.0	n/a	n/a	n/a	n/a	n/a	n/a	n/a	n/a	n/a	F2_06.jpg	500	0	167322	-1	167322	0	TrialProc1	F2OfficeSmallBlockList	2500	0	164823	0	164823	0	164823	2499	c	1345	166168	148.947
