onset	duration	experiment_name	sub	ses	clock_information	datafile_basename	display_refreshrate	experiment_version	group	randomseed	runtime_capabilities	runtime_version	runtimeversionexpected	session_date	session_start_date_time_utc	session_time	studio_version	block	fixation2trs_durationerror	fixation2trs_offsetdelay	fixation2trs_offsettime	fixation2trs_onsetdelay	fixation2trs_onsettime	fixation2trs_onsettoonsettime	goodwork_durationerror	goodwork_finishtime	goodwork_onsetdelay	goodwork_onsettime	goodwork_onsettoonsettime	procedure_block	runlist	runlist_cycle	runlist_sample	running_block	trial	condition	interblockinterval_duration	interblockinterval_durationerror	interblockinterval_finishtime	interblockinterval_offsetdelay	interblockinterval_offsettime	interblockinterval_onsetdelay	interblockinterval_onsettime	interblockinterval_onsettoonsettime	procedure_trial	run1blocklist	run1blocklist_cycle	run1blocklist_sample	run2blocklist	run2blocklist_cycle	run2blocklist_sample	run3blocklist	run3blocklist_cycle	run3blocklist_sample	run4blocklist	run4blocklist_cycle	run4blocklist_sample	run5blocklist	run5blocklist_cycle	run5blocklist_sample	running_trial	subtrial	a1highlargeedblocklist	a1highlargeedblocklist_cycle	a1highlargeedblocklist_sample	a2highlargeedblocklist	a2highlargeedblocklist_cycle	a2highlargeedblocklist_sample	a3highlargeedblocklist	a3highlargeedblocklist_cycle	a3highlargeedblocklist_sample	a4highlargeedblocklist	a4highlargeedblocklist_cycle	a4highlargeedblocklist_sample	a5highlargeedblocklist	a5highlargeedblocklist_cycle	a5highlargeedblocklist_sample	b1highsmalledblocklist	b1highsmalledblocklist_cycle	b1highsmalledblocklist_sample	b2highsmalledblocklist	b2highsmalledblocklist_cycle	b2highsmalledblocklist_sample	b3highsmalledblocklist	b3highsmalledblocklist_cycle	b3highsmalledblocklist_sample	b4highsmalledblocklist	b4highsmalledblocklist_cycle	b4highsmalledblocklist_sample	b5highsmalledblocklist	b5highsmalledblocklist_cycle	b5highsmalledblocklist_sample	c1lowlargeedblocklist	c1lowlargeedblocklist_cycle	c1lowlargeedblocklist_sample	c2lowlargeedblocklist	c2lowlargeedblocklist_cycle	c2lowlargeedblocklist_sample	c3lowlargeedblocklist	c3lowlargeedblocklist_cycle	c3lowlargeedblocklist_sample	c4lowlargeedblocklist	c4lowlargeedblocklist_cycle	c4lowlargeedblocklist_sample	c5lowlargeedblocklist	c5lowlargeedblocklist_cycle	c5lowlargeedblocklist_sample	d1lowsmalledblocklist	d1lowsmalledblocklist_cycle	d1lowsmalledblocklist_sample	d2highlargeedblocklist	d2highlargeedblocklist_cycle	d2highlargeedblocklist_sample	d3lowsmalledblocklist	d3lowsmalledblocklist_cycle	d3lowsmalledblocklist_sample	d4lowsmalledblocklist	d4lowsmalledblocklist_cycle	d4lowsmalledblocklist_sample	d5lowsmalledblocklist	d5lowsmalledblocklist_cycle	d5lowsmalledblocklist_sample	e1officelargeblocklist	e1officelargeblocklist_cycle	e1officelargeblocklist_sample	e2officelargeblocklist	e2officelargeblocklist_cycle	e2officelargeblocklist_sample	e3officelargeblocklist	e3officelargeblocklist_cycle	e3officelargeblocklist_sample	e4officelargeblocklist	e4officelargeblocklist_cycle	e4officelargeblocklist_sample	e5officelargeblocklist	e5officelargeblocklist_cycle	e5officelargeblocklist_sample	f1officesmallblocklist	f1officesmallblocklist_cycle	f1officesmallblocklist_sample	f2officesmallblocklist	f2officesmallblocklist_cycle	f2officesmallblocklist_sample	f3officesmallblocklist	f3officesmallblocklist_cycle	f3officesmallblocklist_sample	f4officesmallblocklist	f4officesmallblocklist_cycle	f4officesmallblocklist_sample	f5officesmallblocklist	f5officesmallblocklist_cycle	f5officesmallblocklist_sample	filename	isi_duration	isi_durationerror	isi_finishtime	isi_onsetdelay	isi_onsettime	isi_onsettoonsettime	procedure_subtrial	running_subtrial	stimslide_duration	stimslide_durationerror	stimslide_finishtime	stimslide_offsetdelay	stimslide_offsettime	stimslide_onsetdelay	stimslide_onsettime	stimslide_onsettoonsettime	stimslide_resp	stimslide_rt	stimslide_rttime	onset_unrounded
4	2.5	000_R01_VA_allProc	89	1	"<?xml version=""1.0""?>\n<Clock xmlns:dt=""urn:schemas-microsoft-com:datatypes""><Description dt:dt=""string"">E-Prime Primary Realtime Clock</Description><StartTime><Timestamp dt:dt=""int"">0</Timestamp><DateUtc dt:dt=""string"">2019-12-03T22:31:14Z</DateUtc></StartTime><FrequencyChanges><FrequencyChange><Frequency dt:dt=""r8"">3020410</Frequency><Timestamp dt:dt=""r8"">75306034759</Timestamp><Current dt:dt=""r8"">0</Current><DateUtc dt:dt=""string"">2019-12-03T22:31:14Z</DateUtc></FrequencyChange></FrequencyChanges></Clock>\n"	000_R01_VA_allProc-89-1	60.002	1.0.0.229	1	-2002784074	Professional	2.0.10.356	2.0.10.356	12-03-2019	n/a	17:31:14	2.0.10.252	3	0	0	511165	25	511165	4000	-999999	687868	0	671162	0	Run4Proc	3	1	3	RunList	1	OfficeSmall	8000	0	533165	0	533165	0	533165	0	F4OfficeSmallBlockProc	n/a	n/a	n/a	n/a	n/a	n/a	n/a	n/a	n/a	1.0	1.0	1.0	n/a	n/a	n/a	Run4BlockList	1	n/a	n/a	n/a	n/a	n/a	n/a	n/a	n/a	n/a	n/a	n/a	n/a	n/a	n/a	n/a	n/a	n/a	n/a	n/a	n/a	n/a	n/a	n/a	n/a	n/a	n/a	n/a	n/a	n/a	n/a	n/a	n/a	n/a	n/a	n/a	n/a	n/a	n/a	n/a	n/a	n/a	n/a	n/a	n/a	n/a	n/a	n/a	n/a	n/a	n/a	n/a	n/a	n/a	n/a	n/a	n/a	n/a	n/a	n/a	n/a	n/a	n/a	n/a	n/a	n/a	n/a	n/a	n/a	n/a	n/a	n/a	n/a	n/a	n/a	n/a	n/a	n/a	n/a	n/a	n/a	n/a	n/a	n/a	n/a	1.0	1.0	1.0	n/a	n/a	n/a	F4_01.jpg	500	0	517665	0	517665	0	TrialProc1	F4OfficeSmallBlockList	2500	0	515165	0	515165	0	515165	2500	c	1074	516239	4.0
7	2.5	000_R01_VA_allProc	89	1	"<?xml version=""1.0""?>\n<Clock xmlns:dt=""urn:schemas-microsoft-com:datatypes""><Description dt:dt=""string"">E-Prime Primary Realtime Clock</Description><StartTime><Timestamp dt:dt=""int"">0</Timestamp><DateUtc dt:dt=""string"">2019-12-03T22:31:14Z</DateUtc></StartTime><FrequencyChanges><FrequencyChange><Frequency dt:dt=""r8"">3020410</Frequency><Timestamp dt:dt=""r8"">75306034759</Timestamp><Current dt:dt=""r8"">0</Current><DateUtc dt:dt=""string"">2019-12-03T22:31:14Z</DateUtc></FrequencyChange></FrequencyChanges></Clock>\n"	000_R01_VA_allProc-89-1	60.002	1.0.0.229	1	-2002784074	Professional	2.0.10.356	2.0.10.356	12-03-2019	n/a	17:31:14	2.0.10.252	3	0	0	511165	25	511165	4000	-999999	687868	0	671162	0	Run4Proc	3	1	3	RunList	1	OfficeSmall	8000	0	533165	0	533165	0	533165	0	F4OfficeSmallBlockProc	n/a	n/a	n/a	n/a	n/a	n/a	n/a	n/a	n/a	1.0	1.0	1.0	n/a	n/a	n/a	Run4BlockList	2	n/a	n/a	n/a	n/a	n/a	n/a	n/a	n/a	n/a	n/a	n/a	n/a	n/a	n/a	n/a	n/a	n/a	n/a	n/a	n/a	n/a	n/a	n/a	n/a	n/a	n/a	n/a	n/a	n/a	n/a	n/a	n/a	n/a	n/a	n/a	n/a	n/a	n/a	n/a	n/a	n/a	n/a	n/a	n/a	n/a	n/a	n/a	n/a	n/a	n/a	n/a	n/a	n/a	n/a	n/a	n/a	n/a	n/a	n/a	n/a	n/a	n/a	n/a	n/a	n/a	n/a	n/a	n/a	n/a	n/a	n/a	n/a	n/a	n/a	n/a	n/a	n/a	n/a	n/a	n/a	n/a	n/a	n/a	n/a	2.0	1.0	2.0	n/a	n/a	n/a	F4_02.jpg	500	0	520665	0	520665	0	TrialProc1	F4OfficeSmallBlockList	2500	0	518165	0	518165	0	518165	2500	c	626	518791	7.0
10	2.5	000_R01_VA_allProc	89	1	"<?xml version=""1.0""?>\n<Clock xmlns:dt=""urn:schemas-microsoft-com:datatypes""><Description dt:dt=""string"">E-Prime Primary Realtime Clock</Description><StartTime><Timestamp dt:dt=""int"">0</Timestamp><DateUtc dt:dt=""string"">2019-12-03T22:31:14Z</DateUtc></StartTime><FrequencyChanges><FrequencyChange><Frequency dt:dt=""r8"">3020410</Frequency><Timestamp dt:dt=""r8"">75306034759</Timestamp><Current dt:dt=""r8"">0</Current><DateUtc dt:dt=""string"">2019-12-03T22:31:14Z</DateUtc></FrequencyChange></FrequencyChanges></Clock>\n"	000_R01_VA_allProc-89-1	60.002	1.0.0.229	1	-2002784074	Professional	2.0.10.356	2.0.10.356	12-03-2019	n/a	17:31:14	2.0.10.252	3	0	0	511165	25	511165	4000	-999999	687868	0	671162	0	Run4Proc	3	1	3	RunList	1	OfficeSmall	8000	0	533165	0	533165	0	533165	0	F4OfficeSmallBlockProc	n/a	n/a	n/a	n/a	n/a	n/a	n/a	n/a	n/a	1.0	1.0	1.0	n/a	n/a	n/a	Run4BlockList	3	n/a	n/a	n/a	n/a	n/a	n/a	n/a	n/a	n/a	n/a	n/a	n/a	n/a	n/a	n/a	n/a	n/a	n/a	n/a	n/a	n/a	n/a	n/a	n/a	n/a	n/a	n/a	n/a	n/a	n/a	n/a	n/a	n/a	n/a	n/a	n/a	n/a	n/a	n/a	n/a	n/a	n/a	n/a	n/a	n/a	n/a	n/a	n/a	n/a	n/a	n/a	n/a	n/a	n/a	n/a	n/a	n/a	n/a	n/a	n/a	n/a	n/a	n/a	n/a	n/a	n/a	n/a	n/a	n/a	n/a	n/a	n/a	n/a	n/a	n/a	n/a	n/a	n/a	n/a	n/a	n/a	n/a	n/a	n/a	3.0	1.0	3.0	n/a	n/a	n/a	F4_03.jpg	500	0	523665	0	523665	0	TrialProc1	F4OfficeSmallBlockList	2500	0	521165	0	521165	0	521165	2500	c	522	521687	10.0
13	2.5	000_R01_VA_allProc	89	1	"<?xml version=""1.0""?>\n<Clock xmlns:dt=""urn:schemas-microsoft-com:datatypes""><Description dt:dt=""string"">E-Prime Primary Realtime Clock</Description><StartTime><Timestamp dt:dt=""int"">0</Timestamp><DateUtc dt:dt=""string"">2019-12-03T22:31:14Z</DateUtc></StartTime><FrequencyChanges><FrequencyChange><Frequency dt:dt=""r8"">3020410</Frequency><Timestamp dt:dt=""r8"">75306034759</Timestamp><Current dt:dt=""r8"">0</Current><DateUtc dt:dt=""string"">2019-12-03T22:31:14Z</DateUtc></FrequencyChange></FrequencyChanges></Clock>\n"	000_R01_VA_allProc-89-1	60.002	1.0.0.229	1	-2002784074	Professional	2.0.10.356	2.0.10.356	12-03-2019	n/a	17:31:14	2.0.10.252	3	0	0	511165	25	511165	4000	-999999	687868	0	671162	0	Run4Proc	3	1	3	RunList	1	OfficeSmall	8000	0	533165	0	533165	0	533165	0	F4OfficeSmallBlockProc	n/a	n/a	n/a	n/a	n/a	n/a	n/a	n/a	n/a	1.0	1.0	1.0	n/a	n/a	n/a	Run4BlockList	4	n/a	n/a	n/a	n/a	n/a	n/a	n/a	n/a	n/a	n/a	n/a	n/a	n/a	n/a	n/a	n/a	n/a	n/a	n/a	n/a	n/a	n/a	n/a	n/a	n/a	n/a	n/a	n/a	n/a	n/a	n/a	n/a	n/a	n/a	n/a	n/a	n/a	n/a	n/a	n/a	n/a	n/a	n/a	n/a	n/a	n/a	n/a	n/a	n/a	n/a	n/a	n/a	n/a	n/a	n/a	n/a	n/a	n/a	n/a	n/a	n/a	n/a	n/a	n/a	n/a	n/a	n/a	n/a	n/a	n/a	n/a	n/a	n/a	n/a	n/a	n/a	n/a	n/a	n/a	n/a	n/a	n/a	n/a	n/a	4.0	1.0	4.0	n/a	n/a	n/a	F4_04.jpg	500	0	526665	0	526665	0	TrialProc1	F4OfficeSmallBlockList	2500	0	524165	0	524165	0	524165	2500	c	594	524759	13.0
16	2.5	000_R01_VA_allProc	89	1	"<?xml version=""1.0""?>\n<Clock xmlns:dt=""urn:schemas-microsoft-com:datatypes""><Description dt:dt=""string"">E-Prime Primary Realtime Clock</Description><StartTime><Timestamp dt:dt=""int"">0</Timestamp><DateUtc dt:dt=""string"">2019-12-03T22:31:14Z</DateUtc></StartTime><FrequencyChanges><FrequencyChange><Frequency dt:dt=""r8"">3020410</Frequency><Timestamp dt:dt=""r8"">75306034759</Timestamp><Current dt:dt=""r8"">0</Current><DateUtc dt:dt=""string"">2019-12-03T22:31:14Z</DateUtc></FrequencyChange></FrequencyChanges></Clock>\n"	000_R01_VA_allProc-89-1	60.002	1.0.0.229	1	-2002784074	Professional	2.0.10.356	2.0.10.356	12-03-2019	n/a	17:31:14	2.0.10.252	3	0	0	511165	25	511165	4000	-999999	687868	0	671162	0	Run4Proc	3	1	3	RunList	1	OfficeSmall	8000	0	533165	0	533165	0	533165	0	F4OfficeSmallBlockProc	n/a	n/a	n/a	n/a	n/a	n/a	n/a	n/a	n/a	1.0	1.0	1.0	n/a	n/a	n/a	Run4BlockList	5	n/a	n/a	n/a	n/a	n/a	n/a	n/a	n/a	n/a	n/a	n/a	n/a	n/a	n/a	n/a	n/a	n/a	n/a	n/a	n/a	n/a	n/a	n/a	n/a	n/a	n/a	n/a	n/a	n/a	n/a	n/a	n/a	n/a	n/a	n/a	n/a	n/a	n/a	n/a	n/a	n/a	n/a	n/a	n/a	n/a	n/a	n/a	n/a	n/a	n/a	n/a	n/a	n/a	n/a	n/a	n/a	n/a	n/a	n/a	n/a	n/a	n/a	n/a	n/a	n/a	n/a	n/a	n/a	n/a	n/a	n/a	n/a	n/a	n/a	n/a	n/a	n/a	n/a	n/a	n/a	n/a	n/a	n/a	n/a	5.0	1.0	5.0	n/a	n/a	n/a	F4_05.jpg	500	0	529665	0	529665	0	TrialProc1	F4OfficeSmallBlockList	2500	0	527165	0	527165	0	527165	2500	c	698	527863	16.0
19	2.5	000_R01_VA_allProc	89	1	"<?xml version=""1.0""?>\n<Clock xmlns:dt=""urn:schemas-microsoft-com:datatypes""><Description dt:dt=""string"">E-Prime Primary Realtime Clock</Description><StartTime><Timestamp dt:dt=""int"">0</Timestamp><DateUtc dt:dt=""string"">2019-12-03T22:31:14Z</DateUtc></StartTime><FrequencyChanges><FrequencyChange><Frequency dt:dt=""r8"">3020410</Frequency><Timestamp dt:dt=""r8"">75306034759</Timestamp><Current dt:dt=""r8"">0</Current><DateUtc dt:dt=""string"">2019-12-03T22:31:14Z</DateUtc></FrequencyChange></FrequencyChanges></Clock>\n"	000_R01_VA_allProc-89-1	60.002	1.0.0.229	1	-2002784074	Professional	2.0.10.356	2.0.10.356	12-03-2019	n/a	17:31:14	2.0.10.252	3	0	0	511165	25	511165	4000	-999999	687868	0	671162	0	Run4Proc	3	1	3	RunList	1	OfficeSmall	8000	0	533165	0	533165	0	533165	0	F4OfficeSmallBlockProc	n/a	n/a	n/a	n/a	n/a	n/a	n/a	n/a	n/a	1.0	1.0	1.0	n/a	n/a	n/a	Run4BlockList	6	n/a	n/a	n/a	n/a	n/a	n/a	n/a	n/a	n/a	n/a	n/a	n/a	n/a	n/a	n/a	n/a	n/a	n/a	n/a	n/a	n/a	n/a	n/a	n/a	n/a	n/a	n/a	n/a	n/a	n/a	n/a	n/a	n/a	n/a	n/a	n/a	n/a	n/a	n/a	n/a	n/a	n/a	n/a	n/a	n/a	n/a	n/a	n/a	n/a	n/a	n/a	n/a	n/a	n/a	n/a	n/a	n/a	n/a	n/a	n/a	n/a	n/a	n/a	n/a	n/a	n/a	n/a	n/a	n/a	n/a	n/a	n/a	n/a	n/a	n/a	n/a	n/a	n/a	n/a	n/a	n/a	n/a	n/a	n/a	6.0	1.0	6.0	n/a	n/a	n/a	F4_06.jpg	500	0	532665	0	532665	0	TrialProc1	F4OfficeSmallBlockList	2500	0	530165	0	530165	0	530165	2500	c	722	530887	19.0
30	2.5	000_R01_VA_allProc	89	1	"<?xml version=""1.0""?>\n<Clock xmlns:dt=""urn:schemas-microsoft-com:datatypes""><Description dt:dt=""string"">E-Prime Primary Realtime Clock</Description><StartTime><Timestamp dt:dt=""int"">0</Timestamp><DateUtc dt:dt=""string"">2019-12-03T22:31:14Z</DateUtc></StartTime><FrequencyChanges><FrequencyChange><Frequency dt:dt=""r8"">3020410</Frequency><Timestamp dt:dt=""r8"">75306034759</Timestamp><Current dt:dt=""r8"">0</Current><DateUtc dt:dt=""string"">2019-12-03T22:31:14Z</DateUtc></FrequencyChange></FrequencyChanges></Clock>\n"	000_R01_VA_allProc-89-1	60.002	1.0.0.229	1	-2002784074	Professional	2.0.10.356	2.0.10.356	12-03-2019	n/a	17:31:14	2.0.10.252	3	0	0	511165	25	511165	4000	-999999	687868	0	671162	0	Run4Proc	3	1	3	RunList	2	HighSmallED	8000	0	559164	0	559164	0	559164	0	B4HighSmallEDBlockProc	n/a	n/a	n/a	n/a	n/a	n/a	n/a	n/a	n/a	2.0	1.0	2.0	n/a	n/a	n/a	Run4BlockList	1	n/a	n/a	n/a	n/a	n/a	n/a	n/a	n/a	n/a	n/a	n/a	n/a	n/a	n/a	n/a	n/a	n/a	n/a	n/a	n/a	n/a	n/a	n/a	n/a	1.0	1.0	1.0	n/a	n/a	n/a	n/a	n/a	n/a	n/a	n/a	n/a	n/a	n/a	n/a	n/a	n/a	n/a	n/a	n/a	n/a	n/a	n/a	n/a	n/a	n/a	n/a	n/a	n/a	n/a	n/a	n/a	n/a	n/a	n/a	n/a	n/a	n/a	n/a	n/a	n/a	n/a	n/a	n/a	n/a	n/a	n/a	n/a	n/a	n/a	n/a	n/a	n/a	n/a	n/a	n/a	n/a	n/a	n/a	n/a	n/a	n/a	n/a	n/a	n/a	n/a	B4_01.jpg	500	0	543664	0	543664	0	TrialProc1	B4HighSmallEDBlockList	2500	1	541165	1	541165	-1	541164	2500	d	1123	542287	29.999
33	2.5	000_R01_VA_allProc	89	1	"<?xml version=""1.0""?>\n<Clock xmlns:dt=""urn:schemas-microsoft-com:datatypes""><Description dt:dt=""string"">E-Prime Primary Realtime Clock</Description><StartTime><Timestamp dt:dt=""int"">0</Timestamp><DateUtc dt:dt=""string"">2019-12-03T22:31:14Z</DateUtc></StartTime><FrequencyChanges><FrequencyChange><Frequency dt:dt=""r8"">3020410</Frequency><Timestamp dt:dt=""r8"">75306034759</Timestamp><Current dt:dt=""r8"">0</Current><DateUtc dt:dt=""string"">2019-12-03T22:31:14Z</DateUtc></FrequencyChange></FrequencyChanges></Clock>\n"	000_R01_VA_allProc-89-1	60.002	1.0.0.229	1	-2002784074	Professional	2.0.10.356	2.0.10.356	12-03-2019	n/a	17:31:14	2.0.10.252	3	0	0	511165	25	511165	4000	-999999	687868	0	671162	0	Run4Proc	3	1	3	RunList	2	HighSmallED	8000	0	559164	0	559164	0	559164	0	B4HighSmallEDBlockProc	n/a	n/a	n/a	n/a	n/a	n/a	n/a	n/a	n/a	2.0	1.0	2.0	n/a	n/a	n/a	Run4BlockList	2	n/a	n/a	n/a	n/a	n/a	n/a	n/a	n/a	n/a	n/a	n/a	n/a	n/a	n/a	n/a	n/a	n/a	n/a	n/a	n/a	n/a	n/a	n/a	n/a	2.0	1.0	2.0	n/a	n/a	n/a	n/a	n/a	n/a	n/a	n/a	n/a	n/a	n/a	n/a	n/a	n/a	n/a	n/a	n/a	n/a	n/a	n/a	n/a	n/a	n/a	n/a	n/a	n/a	n/a	n/a	n/a	n/a	n/a	n/a	n/a	n/a	n/a	n/a	n/a	n/a	n/a	n/a	n/a	n/a	n/a	n/a	n/a	n/a	n/a	n/a	n/a	n/a	n/a	n/a	n/a	n/a	n/a	n/a	n/a	n/a	n/a	n/a	n/a	n/a	n/a	B4_02.jpg	500	0	546664	0	546664	0	TrialProc1	B4HighSmallEDBlockList	2500	0	544164	0	544164	0	544164	2500	d	843	545007	32.998999999999995
36	2.5	000_R01_VA_allProc	89	1	"<?xml version=""1.0""?>\n<Clock xmlns:dt=""urn:schemas-microsoft-com:datatypes""><Description dt:dt=""string"">E-Prime Primary Realtime Clock</Description><StartTime><Timestamp dt:dt=""int"">0</Timestamp><DateUtc dt:dt=""string"">2019-12-03T22:31:14Z</DateUtc></StartTime><FrequencyChanges><FrequencyChange><Frequency dt:dt=""r8"">3020410</Frequency><Timestamp dt:dt=""r8"">75306034759</Timestamp><Current dt:dt=""r8"">0</Current><DateUtc dt:dt=""string"">2019-12-03T22:31:14Z</DateUtc></FrequencyChange></FrequencyChanges></Clock>\n"	000_R01_VA_allProc-89-1	60.002	1.0.0.229	1	-2002784074	Professional	2.0.10.356	2.0.10.356	12-03-2019	n/a	17:31:14	2.0.10.252	3	0	0	511165	25	511165	4000	-999999	687868	0	671162	0	Run4Proc	3	1	3	RunList	2	HighSmallED	8000	0	559164	0	559164	0	559164	0	B4HighSmallEDBlockProc	n/a	n/a	n/a	n/a	n/a	n/a	n/a	n/a	n/a	2.0	1.0	2.0	n/a	n/a	n/a	Run4BlockList	3	n/a	n/a	n/a	n/a	n/a	n/a	n/a	n/a	n/a	n/a	n/a	n/a	n/a	n/a	n/a	n/a	n/a	n/a	n/a	n/a	n/a	n/a	n/a	n/a	3.0	1.0	3.0	n/a	n/a	n/a	n/a	n/a	n/a	n/a	n/a	n/a	n/a	n/a	n/a	n/a	n/a	n/a	n/a	n/a	n/a	n/a	n/a	n/a	n/a	n/a	n/a	n/a	n/a	n/a	n/a	n/a	n/a	n/a	n/a	n/a	n/a	n/a	n/a	n/a	n/a	n/a	n/a	n/a	n/a	n/a	n/a	n/a	n/a	n/a	n/a	n/a	n/a	n/a	n/a	n/a	n/a	n/a	n/a	n/a	n/a	n/a	n/a	n/a	n/a	n/a	B4_03.jpg	500	0	549664	0	549664	0	TrialProc1	B4HighSmallEDBlockList	2500	0	547164	0	547164	0	547164	2500	d	579	547743	35.998999999999995
39	2.5	000_R01_VA_allProc	89	1	"<?xml version=""1.0""?>\n<Clock xmlns:dt=""urn:schemas-microsoft-com:datatypes""><Description dt:dt=""string"">E-Prime Primary Realtime Clock</Description><StartTime><Timestamp dt:dt=""int"">0</Timestamp><DateUtc dt:dt=""string"">2019-12-03T22:31:14Z</DateUtc></StartTime><FrequencyChanges><FrequencyChange><Frequency dt:dt=""r8"">3020410</Frequency><Timestamp dt:dt=""r8"">75306034759</Timestamp><Current dt:dt=""r8"">0</Current><DateUtc dt:dt=""string"">2019-12-03T22:31:14Z</DateUtc></FrequencyChange></FrequencyChanges></Clock>\n"	000_R01_VA_allProc-89-1	60.002	1.0.0.229	1	-2002784074	Professional	2.0.10.356	2.0.10.356	12-03-2019	n/a	17:31:14	2.0.10.252	3	0	0	511165	25	511165	4000	-999999	687868	0	671162	0	Run4Proc	3	1	3	RunList	2	HighSmallED	8000	0	559164	0	559164	0	559164	0	B4HighSmallEDBlockProc	n/a	n/a	n/a	n/a	n/a	n/a	n/a	n/a	n/a	2.0	1.0	2.0	n/a	n/a	n/a	Run4BlockList	4	n/a	n/a	n/a	n/a	n/a	n/a	n/a	n/a	n/a	n/a	n/a	n/a	n/a	n/a	n/a	n/a	n/a	n/a	n/a	n/a	n/a	n/a	n/a	n/a	4.0	1.0	4.0	n/a	n/a	n/a	n/a	n/a	n/a	n/a	n/a	n/a	n/a	n/a	n/a	n/a	n/a	n/a	n/a	n/a	n/a	n/a	n/a	n/a	n/a	n/a	n/a	n/a	n/a	n/a	n/a	n/a	n/a	n/a	n/a	n/a	n/a	n/a	n/a	n/a	n/a	n/a	n/a	n/a	n/a	n/a	n/a	n/a	n/a	n/a	n/a	n/a	n/a	n/a	n/a	n/a	n/a	n/a	n/a	n/a	n/a	n/a	n/a	n/a	n/a	n/a	B4_04.jpg	500	0	552664	0	552664	0	TrialProc1	B4HighSmallEDBlockList	2500	0	550164	0	550164	0	550164	2500	d	859	551023	38.999
42	2.5	000_R01_VA_allProc	89	1	"<?xml version=""1.0""?>\n<Clock xmlns:dt=""urn:schemas-microsoft-com:datatypes""><Description dt:dt=""string"">E-Prime Primary Realtime Clock</Description><StartTime><Timestamp dt:dt=""int"">0</Timestamp><DateUtc dt:dt=""string"">2019-12-03T22:31:14Z</DateUtc></StartTime><FrequencyChanges><FrequencyChange><Frequency dt:dt=""r8"">3020410</Frequency><Timestamp dt:dt=""r8"">75306034759</Timestamp><Current dt:dt=""r8"">0</Current><DateUtc dt:dt=""string"">2019-12-03T22:31:14Z</DateUtc></FrequencyChange></FrequencyChanges></Clock>\n"	000_R01_VA_allProc-89-1	60.002	1.0.0.229	1	-2002784074	Professional	2.0.10.356	2.0.10.356	12-03-2019	n/a	17:31:14	2.0.10.252	3	0	0	511165	25	511165	4000	-999999	687868	0	671162	0	Run4Proc	3	1	3	RunList	2	HighSmallED	8000	0	559164	0	559164	0	559164	0	B4HighSmallEDBlockProc	n/a	n/a	n/a	n/a	n/a	n/a	n/a	n/a	n/a	2.0	1.0	2.0	n/a	n/a	n/a	Run4BlockList	5	n/a	n/a	n/a	n/a	n/a	n/a	n/a	n/a	n/a	n/a	n/a	n/a	n/a	n/a	n/a	n/a	n/a	n/a	n/a	n/a	n/a	n/a	n/a	n/a	5.0	1.0	5.0	n/a	n/a	n/a	n/a	n/a	n/a	n/a	n/a	n/a	n/a	n/a	n/a	n/a	n/a	n/a	n/a	n/a	n/a	n/a	n/a	n/a	n/a	n/a	n/a	n/a	n/a	n/a	n/a	n/a	n/a	n/a	n/a	n/a	n/a	n/a	n/a	n/a	n/a	n/a	n/a	n/a	n/a	n/a	n/a	n/a	n/a	n/a	n/a	n/a	n/a	n/a	n/a	n/a	n/a	n/a	n/a	n/a	n/a	n/a	n/a	n/a	n/a	n/a	B4_05.jpg	500	0	555664	0	555664	0	TrialProc1	B4HighSmallEDBlockList	2500	0	553164	0	553164	0	553164	2500	d	1163	554327	41.999
45	2.5	000_R01_VA_allProc	89	1	"<?xml version=""1.0""?>\n<Clock xmlns:dt=""urn:schemas-microsoft-com:datatypes""><Description dt:dt=""string"">E-Prime Primary Realtime Clock</Description><StartTime><Timestamp dt:dt=""int"">0</Timestamp><DateUtc dt:dt=""string"">2019-12-03T22:31:14Z</DateUtc></StartTime><FrequencyChanges><FrequencyChange><Frequency dt:dt=""r8"">3020410</Frequency><Timestamp dt:dt=""r8"">75306034759</Timestamp><Current dt:dt=""r8"">0</Current><DateUtc dt:dt=""string"">2019-12-03T22:31:14Z</DateUtc></FrequencyChange></FrequencyChanges></Clock>\n"	000_R01_VA_allProc-89-1	60.002	1.0.0.229	1	-2002784074	Professional	2.0.10.356	2.0.10.356	12-03-2019	n/a	17:31:14	2.0.10.252	3	0	0	511165	25	511165	4000	-999999	687868	0	671162	0	Run4Proc	3	1	3	RunList	2	HighSmallED	8000	0	559164	0	559164	0	559164	0	B4HighSmallEDBlockProc	n/a	n/a	n/a	n/a	n/a	n/a	n/a	n/a	n/a	2.0	1.0	2.0	n/a	n/a	n/a	Run4BlockList	6	n/a	n/a	n/a	n/a	n/a	n/a	n/a	n/a	n/a	n/a	n/a	n/a	n/a	n/a	n/a	n/a	n/a	n/a	n/a	n/a	n/a	n/a	n/a	n/a	6.0	1.0	6.0	n/a	n/a	n/a	n/a	n/a	n/a	n/a	n/a	n/a	n/a	n/a	n/a	n/a	n/a	n/a	n/a	n/a	n/a	n/a	n/a	n/a	n/a	n/a	n/a	n/a	n/a	n/a	n/a	n/a	n/a	n/a	n/a	n/a	n/a	n/a	n/a	n/a	n/a	n/a	n/a	n/a	n/a	n/a	n/a	n/a	n/a	n/a	n/a	n/a	n/a	n/a	n/a	n/a	n/a	n/a	n/a	n/a	n/a	n/a	n/a	n/a	n/a	n/a	B4_06.jpg	500	0	558664	0	558664	0	TrialProc1	B4HighSmallEDBlockList	2500	0	556164	0	556164	0	556164	2500	d	611	556775	44.999
56	2.5	000_R01_VA_allProc	89	1	"<?xml version=""1.0""?>\n<Clock xmlns:dt=""urn:schemas-microsoft-com:datatypes""><Description dt:dt=""string"">E-Prime Primary Realtime Clock</Description><StartTime><Timestamp dt:dt=""int"">0</Timestamp><DateUtc dt:dt=""string"">2019-12-03T22:31:14Z</DateUtc></StartTime><FrequencyChanges><FrequencyChange><Frequency dt:dt=""r8"">3020410</Frequency><Timestamp dt:dt=""r8"">75306034759</Timestamp><Current dt:dt=""r8"">0</Current><DateUtc dt:dt=""string"">2019-12-03T22:31:14Z</DateUtc></FrequencyChange></FrequencyChanges></Clock>\n"	000_R01_VA_allProc-89-1	60.002	1.0.0.229	1	-2002784074	Professional	2.0.10.356	2.0.10.356	12-03-2019	n/a	17:31:14	2.0.10.252	3	0	0	511165	25	511165	4000	-999999	687868	0	671162	0	Run4Proc	3	1	3	RunList	3	LowLargeED	8000	1	585164	1	585164	0	585163	0	C4LowLargeEDBlockProc	n/a	n/a	n/a	n/a	n/a	n/a	n/a	n/a	n/a	3.0	1.0	3.0	n/a	n/a	n/a	Run4BlockList	1	n/a	n/a	n/a	n/a	n/a	n/a	n/a	n/a	n/a	n/a	n/a	n/a	n/a	n/a	n/a	n/a	n/a	n/a	n/a	n/a	n/a	n/a	n/a	n/a	n/a	n/a	n/a	n/a	n/a	n/a	n/a	n/a	n/a	n/a	n/a	n/a	n/a	n/a	n/a	1.0	1.0	1.0	n/a	n/a	n/a	n/a	n/a	n/a	n/a	n/a	n/a	n/a	n/a	n/a	n/a	n/a	n/a	n/a	n/a	n/a	n/a	n/a	n/a	n/a	n/a	n/a	n/a	n/a	n/a	n/a	n/a	n/a	n/a	n/a	n/a	n/a	n/a	n/a	n/a	n/a	n/a	n/a	n/a	n/a	n/a	n/a	n/a	n/a	n/a	n/a	C4_01.jpg	500	0	569664	0	569664	0	TrialProc1	C4LowLargeEDBlockList	2500	0	567164	0	567164	0	567164	2500	d	1490	568654	55.999
59	2.5	000_R01_VA_allProc	89	1	"<?xml version=""1.0""?>\n<Clock xmlns:dt=""urn:schemas-microsoft-com:datatypes""><Description dt:dt=""string"">E-Prime Primary Realtime Clock</Description><StartTime><Timestamp dt:dt=""int"">0</Timestamp><DateUtc dt:dt=""string"">2019-12-03T22:31:14Z</DateUtc></StartTime><FrequencyChanges><FrequencyChange><Frequency dt:dt=""r8"">3020410</Frequency><Timestamp dt:dt=""r8"">75306034759</Timestamp><Current dt:dt=""r8"">0</Current><DateUtc dt:dt=""string"">2019-12-03T22:31:14Z</DateUtc></FrequencyChange></FrequencyChanges></Clock>\n"	000_R01_VA_allProc-89-1	60.002	1.0.0.229	1	-2002784074	Professional	2.0.10.356	2.0.10.356	12-03-2019	n/a	17:31:14	2.0.10.252	3	0	0	511165	25	511165	4000	-999999	687868	0	671162	0	Run4Proc	3	1	3	RunList	3	LowLargeED	8000	1	585164	1	585164	0	585163	0	C4LowLargeEDBlockProc	n/a	n/a	n/a	n/a	n/a	n/a	n/a	n/a	n/a	3.0	1.0	3.0	n/a	n/a	n/a	Run4BlockList	2	n/a	n/a	n/a	n/a	n/a	n/a	n/a	n/a	n/a	n/a	n/a	n/a	n/a	n/a	n/a	n/a	n/a	n/a	n/a	n/a	n/a	n/a	n/a	n/a	n/a	n/a	n/a	n/a	n/a	n/a	n/a	n/a	n/a	n/a	n/a	n/a	n/a	n/a	n/a	2.0	1.0	2.0	n/a	n/a	n/a	n/a	n/a	n/a	n/a	n/a	n/a	n/a	n/a	n/a	n/a	n/a	n/a	n/a	n/a	n/a	n/a	n/a	n/a	n/a	n/a	n/a	n/a	n/a	n/a	n/a	n/a	n/a	n/a	n/a	n/a	n/a	n/a	n/a	n/a	n/a	n/a	n/a	n/a	n/a	n/a	n/a	n/a	n/a	n/a	n/a	C4_02.jpg	500	0	572664	0	572664	0	TrialProc1	C4LowLargeEDBlockList	2500	0	570164	0	570164	0	570164	2500	c	938	571102	58.999
62	2.5	000_R01_VA_allProc	89	1	"<?xml version=""1.0""?>\n<Clock xmlns:dt=""urn:schemas-microsoft-com:datatypes""><Description dt:dt=""string"">E-Prime Primary Realtime Clock</Description><StartTime><Timestamp dt:dt=""int"">0</Timestamp><DateUtc dt:dt=""string"">2019-12-03T22:31:14Z</DateUtc></StartTime><FrequencyChanges><FrequencyChange><Frequency dt:dt=""r8"">3020410</Frequency><Timestamp dt:dt=""r8"">75306034759</Timestamp><Current dt:dt=""r8"">0</Current><DateUtc dt:dt=""string"">2019-12-03T22:31:14Z</DateUtc></FrequencyChange></FrequencyChanges></Clock>\n"	000_R01_VA_allProc-89-1	60.002	1.0.0.229	1	-2002784074	Professional	2.0.10.356	2.0.10.356	12-03-2019	n/a	17:31:14	2.0.10.252	3	0	0	511165	25	511165	4000	-999999	687868	0	671162	0	Run4Proc	3	1	3	RunList	3	LowLargeED	8000	1	585164	1	585164	0	585163	0	C4LowLargeEDBlockProc	n/a	n/a	n/a	n/a	n/a	n/a	n/a	n/a	n/a	3.0	1.0	3.0	n/a	n/a	n/a	Run4BlockList	3	n/a	n/a	n/a	n/a	n/a	n/a	n/a	n/a	n/a	n/a	n/a	n/a	n/a	n/a	n/a	n/a	n/a	n/a	n/a	n/a	n/a	n/a	n/a	n/a	n/a	n/a	n/a	n/a	n/a	n/a	n/a	n/a	n/a	n/a	n/a	n/a	n/a	n/a	n/a	3.0	1.0	3.0	n/a	n/a	n/a	n/a	n/a	n/a	n/a	n/a	n/a	n/a	n/a	n/a	n/a	n/a	n/a	n/a	n/a	n/a	n/a	n/a	n/a	n/a	n/a	n/a	n/a	n/a	n/a	n/a	n/a	n/a	n/a	n/a	n/a	n/a	n/a	n/a	n/a	n/a	n/a	n/a	n/a	n/a	n/a	n/a	n/a	n/a	n/a	n/a	C4_03.jpg	500	0	575664	0	575664	0	TrialProc1	C4LowLargeEDBlockList	2500	0	573164	0	573164	0	573164	2500	c	738	573902	61.999
65	2.5	000_R01_VA_allProc	89	1	"<?xml version=""1.0""?>\n<Clock xmlns:dt=""urn:schemas-microsoft-com:datatypes""><Description dt:dt=""string"">E-Prime Primary Realtime Clock</Description><StartTime><Timestamp dt:dt=""int"">0</Timestamp><DateUtc dt:dt=""string"">2019-12-03T22:31:14Z</DateUtc></StartTime><FrequencyChanges><FrequencyChange><Frequency dt:dt=""r8"">3020410</Frequency><Timestamp dt:dt=""r8"">75306034759</Timestamp><Current dt:dt=""r8"">0</Current><DateUtc dt:dt=""string"">2019-12-03T22:31:14Z</DateUtc></FrequencyChange></FrequencyChanges></Clock>\n"	000_R01_VA_allProc-89-1	60.002	1.0.0.229	1	-2002784074	Professional	2.0.10.356	2.0.10.356	12-03-2019	n/a	17:31:14	2.0.10.252	3	0	0	511165	25	511165	4000	-999999	687868	0	671162	0	Run4Proc	3	1	3	RunList	3	LowLargeED	8000	1	585164	1	585164	0	585163	0	C4LowLargeEDBlockProc	n/a	n/a	n/a	n/a	n/a	n/a	n/a	n/a	n/a	3.0	1.0	3.0	n/a	n/a	n/a	Run4BlockList	4	n/a	n/a	n/a	n/a	n/a	n/a	n/a	n/a	n/a	n/a	n/a	n/a	n/a	n/a	n/a	n/a	n/a	n/a	n/a	n/a	n/a	n/a	n/a	n/a	n/a	n/a	n/a	n/a	n/a	n/a	n/a	n/a	n/a	n/a	n/a	n/a	n/a	n/a	n/a	4.0	1.0	4.0	n/a	n/a	n/a	n/a	n/a	n/a	n/a	n/a	n/a	n/a	n/a	n/a	n/a	n/a	n/a	n/a	n/a	n/a	n/a	n/a	n/a	n/a	n/a	n/a	n/a	n/a	n/a	n/a	n/a	n/a	n/a	n/a	n/a	n/a	n/a	n/a	n/a	n/a	n/a	n/a	n/a	n/a	n/a	n/a	n/a	n/a	n/a	n/a	C4_04.jpg	500	0	578664	0	578664	0	TrialProc1	C4LowLargeEDBlockList	2500	0	576164	0	576164	0	576164	2500	c	666	576830	64.999
68	2.5	000_R01_VA_allProc	89	1	"<?xml version=""1.0""?>\n<Clock xmlns:dt=""urn:schemas-microsoft-com:datatypes""><Description dt:dt=""string"">E-Prime Primary Realtime Clock</Description><StartTime><Timestamp dt:dt=""int"">0</Timestamp><DateUtc dt:dt=""string"">2019-12-03T22:31:14Z</DateUtc></StartTime><FrequencyChanges><FrequencyChange><Frequency dt:dt=""r8"">3020410</Frequency><Timestamp dt:dt=""r8"">75306034759</Timestamp><Current dt:dt=""r8"">0</Current><DateUtc dt:dt=""string"">2019-12-03T22:31:14Z</DateUtc></FrequencyChange></FrequencyChanges></Clock>\n"	000_R01_VA_allProc-89-1	60.002	1.0.0.229	1	-2002784074	Professional	2.0.10.356	2.0.10.356	12-03-2019	n/a	17:31:14	2.0.10.252	3	0	0	511165	25	511165	4000	-999999	687868	0	671162	0	Run4Proc	3	1	3	RunList	3	LowLargeED	8000	1	585164	1	585164	0	585163	0	C4LowLargeEDBlockProc	n/a	n/a	n/a	n/a	n/a	n/a	n/a	n/a	n/a	3.0	1.0	3.0	n/a	n/a	n/a	Run4BlockList	5	n/a	n/a	n/a	n/a	n/a	n/a	n/a	n/a	n/a	n/a	n/a	n/a	n/a	n/a	n/a	n/a	n/a	n/a	n/a	n/a	n/a	n/a	n/a	n/a	n/a	n/a	n/a	n/a	n/a	n/a	n/a	n/a	n/a	n/a	n/a	n/a	n/a	n/a	n/a	5.0	1.0	5.0	n/a	n/a	n/a	n/a	n/a	n/a	n/a	n/a	n/a	n/a	n/a	n/a	n/a	n/a	n/a	n/a	n/a	n/a	n/a	n/a	n/a	n/a	n/a	n/a	n/a	n/a	n/a	n/a	n/a	n/a	n/a	n/a	n/a	n/a	n/a	n/a	n/a	n/a	n/a	n/a	n/a	n/a	n/a	n/a	n/a	n/a	n/a	n/a	C4_05.jpg	500	0	581664	0	581664	0	TrialProc1	C4LowLargeEDBlockList	2500	0	579164	0	579164	0	579164	2500	c	730	579894	67.999
71	2.5	000_R01_VA_allProc	89	1	"<?xml version=""1.0""?>\n<Clock xmlns:dt=""urn:schemas-microsoft-com:datatypes""><Description dt:dt=""string"">E-Prime Primary Realtime Clock</Description><StartTime><Timestamp dt:dt=""int"">0</Timestamp><DateUtc dt:dt=""string"">2019-12-03T22:31:14Z</DateUtc></StartTime><FrequencyChanges><FrequencyChange><Frequency dt:dt=""r8"">3020410</Frequency><Timestamp dt:dt=""r8"">75306034759</Timestamp><Current dt:dt=""r8"">0</Current><DateUtc dt:dt=""string"">2019-12-03T22:31:14Z</DateUtc></FrequencyChange></FrequencyChanges></Clock>\n"	000_R01_VA_allProc-89-1	60.002	1.0.0.229	1	-2002784074	Professional	2.0.10.356	2.0.10.356	12-03-2019	n/a	17:31:14	2.0.10.252	3	0	0	511165	25	511165	4000	-999999	687868	0	671162	0	Run4Proc	3	1	3	RunList	3	LowLargeED	8000	1	585164	1	585164	0	585163	0	C4LowLargeEDBlockProc	n/a	n/a	n/a	n/a	n/a	n/a	n/a	n/a	n/a	3.0	1.0	3.0	n/a	n/a	n/a	Run4BlockList	6	n/a	n/a	n/a	n/a	n/a	n/a	n/a	n/a	n/a	n/a	n/a	n/a	n/a	n/a	n/a	n/a	n/a	n/a	n/a	n/a	n/a	n/a	n/a	n/a	n/a	n/a	n/a	n/a	n/a	n/a	n/a	n/a	n/a	n/a	n/a	n/a	n/a	n/a	n/a	6.0	1.0	6.0	n/a	n/a	n/a	n/a	n/a	n/a	n/a	n/a	n/a	n/a	n/a	n/a	n/a	n/a	n/a	n/a	n/a	n/a	n/a	n/a	n/a	n/a	n/a	n/a	n/a	n/a	n/a	n/a	n/a	n/a	n/a	n/a	n/a	n/a	n/a	n/a	n/a	n/a	n/a	n/a	n/a	n/a	n/a	n/a	n/a	n/a	n/a	n/a	C4_06.jpg	500	1	584664	-1	584663	0	TrialProc1	C4LowLargeEDBlockList	2500	0	582164	0	582164	0	582164	2499	c	1026	583190	70.999
82	2.5	000_R01_VA_allProc	89	1	"<?xml version=""1.0""?>\n<Clock xmlns:dt=""urn:schemas-microsoft-com:datatypes""><Description dt:dt=""string"">E-Prime Primary Realtime Clock</Description><StartTime><Timestamp dt:dt=""int"">0</Timestamp><DateUtc dt:dt=""string"">2019-12-03T22:31:14Z</DateUtc></StartTime><FrequencyChanges><FrequencyChange><Frequency dt:dt=""r8"">3020410</Frequency><Timestamp dt:dt=""r8"">75306034759</Timestamp><Current dt:dt=""r8"">0</Current><DateUtc dt:dt=""string"">2019-12-03T22:31:14Z</DateUtc></FrequencyChange></FrequencyChanges></Clock>\n"	000_R01_VA_allProc-89-1	60.002	1.0.0.229	1	-2002784074	Professional	2.0.10.356	2.0.10.356	12-03-2019	n/a	17:31:14	2.0.10.252	3	0	0	511165	25	511165	4000	-999999	687868	0	671162	0	Run4Proc	3	1	3	RunList	4	OfficeLarge	8000	0	611163	0	611163	0	611163	0	E4OfficeLargeBlockProc	n/a	n/a	n/a	n/a	n/a	n/a	n/a	n/a	n/a	4.0	1.0	4.0	n/a	n/a	n/a	Run4BlockList	1	n/a	n/a	n/a	n/a	n/a	n/a	n/a	n/a	n/a	n/a	n/a	n/a	n/a	n/a	n/a	n/a	n/a	n/a	n/a	n/a	n/a	n/a	n/a	n/a	n/a	n/a	n/a	n/a	n/a	n/a	n/a	n/a	n/a	n/a	n/a	n/a	n/a	n/a	n/a	n/a	n/a	n/a	n/a	n/a	n/a	n/a	n/a	n/a	n/a	n/a	n/a	n/a	n/a	n/a	n/a	n/a	n/a	n/a	n/a	n/a	n/a	n/a	n/a	n/a	n/a	n/a	n/a	n/a	n/a	1.0	1.0	1.0	n/a	n/a	n/a	n/a	n/a	n/a	n/a	n/a	n/a	n/a	n/a	n/a	n/a	n/a	n/a	n/a	n/a	n/a	E4_01.jpg	500	0	595663	0	595663	0	TrialProc1	E4OfficeLargeBlockList	2500	0	593163	0	593163	0	593163	2500	c	1779	594942	81.998
85	2.5	000_R01_VA_allProc	89	1	"<?xml version=""1.0""?>\n<Clock xmlns:dt=""urn:schemas-microsoft-com:datatypes""><Description dt:dt=""string"">E-Prime Primary Realtime Clock</Description><StartTime><Timestamp dt:dt=""int"">0</Timestamp><DateUtc dt:dt=""string"">2019-12-03T22:31:14Z</DateUtc></StartTime><FrequencyChanges><FrequencyChange><Frequency dt:dt=""r8"">3020410</Frequency><Timestamp dt:dt=""r8"">75306034759</Timestamp><Current dt:dt=""r8"">0</Current><DateUtc dt:dt=""string"">2019-12-03T22:31:14Z</DateUtc></FrequencyChange></FrequencyChanges></Clock>\n"	000_R01_VA_allProc-89-1	60.002	1.0.0.229	1	-2002784074	Professional	2.0.10.356	2.0.10.356	12-03-2019	n/a	17:31:14	2.0.10.252	3	0	0	511165	25	511165	4000	-999999	687868	0	671162	0	Run4Proc	3	1	3	RunList	4	OfficeLarge	8000	0	611163	0	611163	0	611163	0	E4OfficeLargeBlockProc	n/a	n/a	n/a	n/a	n/a	n/a	n/a	n/a	n/a	4.0	1.0	4.0	n/a	n/a	n/a	Run4BlockList	2	n/a	n/a	n/a	n/a	n/a	n/a	n/a	n/a	n/a	n/a	n/a	n/a	n/a	n/a	n/a	n/a	n/a	n/a	n/a	n/a	n/a	n/a	n/a	n/a	n/a	n/a	n/a	n/a	n/a	n/a	n/a	n/a	n/a	n/a	n/a	n/a	n/a	n/a	n/a	n/a	n/a	n/a	n/a	n/a	n/a	n/a	n/a	n/a	n/a	n/a	n/a	n/a	n/a	n/a	n/a	n/a	n/a	n/a	n/a	n/a	n/a	n/a	n/a	n/a	n/a	n/a	n/a	n/a	n/a	2.0	1.0	2.0	n/a	n/a	n/a	n/a	n/a	n/a	n/a	n/a	n/a	n/a	n/a	n/a	n/a	n/a	n/a	n/a	n/a	n/a	E4_02.jpg	500	0	598663	0	598663	0	TrialProc1	E4OfficeLargeBlockList	2500	0	596163	0	596163	0	596163	2500	c	515	596678	84.998
88	2.5	000_R01_VA_allProc	89	1	"<?xml version=""1.0""?>\n<Clock xmlns:dt=""urn:schemas-microsoft-com:datatypes""><Description dt:dt=""string"">E-Prime Primary Realtime Clock</Description><StartTime><Timestamp dt:dt=""int"">0</Timestamp><DateUtc dt:dt=""string"">2019-12-03T22:31:14Z</DateUtc></StartTime><FrequencyChanges><FrequencyChange><Frequency dt:dt=""r8"">3020410</Frequency><Timestamp dt:dt=""r8"">75306034759</Timestamp><Current dt:dt=""r8"">0</Current><DateUtc dt:dt=""string"">2019-12-03T22:31:14Z</DateUtc></FrequencyChange></FrequencyChanges></Clock>\n"	000_R01_VA_allProc-89-1	60.002	1.0.0.229	1	-2002784074	Professional	2.0.10.356	2.0.10.356	12-03-2019	n/a	17:31:14	2.0.10.252	3	0	0	511165	25	511165	4000	-999999	687868	0	671162	0	Run4Proc	3	1	3	RunList	4	OfficeLarge	8000	0	611163	0	611163	0	611163	0	E4OfficeLargeBlockProc	n/a	n/a	n/a	n/a	n/a	n/a	n/a	n/a	n/a	4.0	1.0	4.0	n/a	n/a	n/a	Run4BlockList	3	n/a	n/a	n/a	n/a	n/a	n/a	n/a	n/a	n/a	n/a	n/a	n/a	n/a	n/a	n/a	n/a	n/a	n/a	n/a	n/a	n/a	n/a	n/a	n/a	n/a	n/a	n/a	n/a	n/a	n/a	n/a	n/a	n/a	n/a	n/a	n/a	n/a	n/a	n/a	n/a	n/a	n/a	n/a	n/a	n/a	n/a	n/a	n/a	n/a	n/a	n/a	n/a	n/a	n/a	n/a	n/a	n/a	n/a	n/a	n/a	n/a	n/a	n/a	n/a	n/a	n/a	n/a	n/a	n/a	3.0	1.0	3.0	n/a	n/a	n/a	n/a	n/a	n/a	n/a	n/a	n/a	n/a	n/a	n/a	n/a	n/a	n/a	n/a	n/a	n/a	E4_03.jpg	500	0	601663	0	601663	0	TrialProc1	E4OfficeLargeBlockList	2500	0	599163	0	599163	0	599163	2500	c	779	599942	87.998
91	2.5	000_R01_VA_allProc	89	1	"<?xml version=""1.0""?>\n<Clock xmlns:dt=""urn:schemas-microsoft-com:datatypes""><Description dt:dt=""string"">E-Prime Primary Realtime Clock</Description><StartTime><Timestamp dt:dt=""int"">0</Timestamp><DateUtc dt:dt=""string"">2019-12-03T22:31:14Z</DateUtc></StartTime><FrequencyChanges><FrequencyChange><Frequency dt:dt=""r8"">3020410</Frequency><Timestamp dt:dt=""r8"">75306034759</Timestamp><Current dt:dt=""r8"">0</Current><DateUtc dt:dt=""string"">2019-12-03T22:31:14Z</DateUtc></FrequencyChange></FrequencyChanges></Clock>\n"	000_R01_VA_allProc-89-1	60.002	1.0.0.229	1	-2002784074	Professional	2.0.10.356	2.0.10.356	12-03-2019	n/a	17:31:14	2.0.10.252	3	0	0	511165	25	511165	4000	-999999	687868	0	671162	0	Run4Proc	3	1	3	RunList	4	OfficeLarge	8000	0	611163	0	611163	0	611163	0	E4OfficeLargeBlockProc	n/a	n/a	n/a	n/a	n/a	n/a	n/a	n/a	n/a	4.0	1.0	4.0	n/a	n/a	n/a	Run4BlockList	4	n/a	n/a	n/a	n/a	n/a	n/a	n/a	n/a	n/a	n/a	n/a	n/a	n/a	n/a	n/a	n/a	n/a	n/a	n/a	n/a	n/a	n/a	n/a	n/a	n/a	n/a	n/a	n/a	n/a	n/a	n/a	n/a	n/a	n/a	n/a	n/a	n/a	n/a	n/a	n/a	n/a	n/a	n/a	n/a	n/a	n/a	n/a	n/a	n/a	n/a	n/a	n/a	n/a	n/a	n/a	n/a	n/a	n/a	n/a	n/a	n/a	n/a	n/a	n/a	n/a	n/a	n/a	n/a	n/a	4.0	1.0	4.0	n/a	n/a	n/a	n/a	n/a	n/a	n/a	n/a	n/a	n/a	n/a	n/a	n/a	n/a	n/a	n/a	n/a	n/a	E4_04.jpg	500	0	604663	0	604663	0	TrialProc1	E4OfficeLargeBlockList	2500	0	602163	0	602163	0	602163	2500	c	843	603006	90.998
94	2.5	000_R01_VA_allProc	89	1	"<?xml version=""1.0""?>\n<Clock xmlns:dt=""urn:schemas-microsoft-com:datatypes""><Description dt:dt=""string"">E-Prime Primary Realtime Clock</Description><StartTime><Timestamp dt:dt=""int"">0</Timestamp><DateUtc dt:dt=""string"">2019-12-03T22:31:14Z</DateUtc></StartTime><FrequencyChanges><FrequencyChange><Frequency dt:dt=""r8"">3020410</Frequency><Timestamp dt:dt=""r8"">75306034759</Timestamp><Current dt:dt=""r8"">0</Current><DateUtc dt:dt=""string"">2019-12-03T22:31:14Z</DateUtc></FrequencyChange></FrequencyChanges></Clock>\n"	000_R01_VA_allProc-89-1	60.002	1.0.0.229	1	-2002784074	Professional	2.0.10.356	2.0.10.356	12-03-2019	n/a	17:31:14	2.0.10.252	3	0	0	511165	25	511165	4000	-999999	687868	0	671162	0	Run4Proc	3	1	3	RunList	4	OfficeLarge	8000	0	611163	0	611163	0	611163	0	E4OfficeLargeBlockProc	n/a	n/a	n/a	n/a	n/a	n/a	n/a	n/a	n/a	4.0	1.0	4.0	n/a	n/a	n/a	Run4BlockList	5	n/a	n/a	n/a	n/a	n/a	n/a	n/a	n/a	n/a	n/a	n/a	n/a	n/a	n/a	n/a	n/a	n/a	n/a	n/a	n/a	n/a	n/a	n/a	n/a	n/a	n/a	n/a	n/a	n/a	n/a	n/a	n/a	n/a	n/a	n/a	n/a	n/a	n/a	n/a	n/a	n/a	n/a	n/a	n/a	n/a	n/a	n/a	n/a	n/a	n/a	n/a	n/a	n/a	n/a	n/a	n/a	n/a	n/a	n/a	n/a	n/a	n/a	n/a	n/a	n/a	n/a	n/a	n/a	n/a	5.0	1.0	5.0	n/a	n/a	n/a	n/a	n/a	n/a	n/a	n/a	n/a	n/a	n/a	n/a	n/a	n/a	n/a	n/a	n/a	n/a	E4_05.jpg	500	0	607663	0	607663	0	TrialProc1	E4OfficeLargeBlockList	2500	0	605163	0	605163	0	605163	2500	c	1035	606198	93.998
97	2.5	000_R01_VA_allProc	89	1	"<?xml version=""1.0""?>\n<Clock xmlns:dt=""urn:schemas-microsoft-com:datatypes""><Description dt:dt=""string"">E-Prime Primary Realtime Clock</Description><StartTime><Timestamp dt:dt=""int"">0</Timestamp><DateUtc dt:dt=""string"">2019-12-03T22:31:14Z</DateUtc></StartTime><FrequencyChanges><FrequencyChange><Frequency dt:dt=""r8"">3020410</Frequency><Timestamp dt:dt=""r8"">75306034759</Timestamp><Current dt:dt=""r8"">0</Current><DateUtc dt:dt=""string"">2019-12-03T22:31:14Z</DateUtc></FrequencyChange></FrequencyChanges></Clock>\n"	000_R01_VA_allProc-89-1	60.002	1.0.0.229	1	-2002784074	Professional	2.0.10.356	2.0.10.356	12-03-2019	n/a	17:31:14	2.0.10.252	3	0	0	511165	25	511165	4000	-999999	687868	0	671162	0	Run4Proc	3	1	3	RunList	4	OfficeLarge	8000	0	611163	0	611163	0	611163	0	E4OfficeLargeBlockProc	n/a	n/a	n/a	n/a	n/a	n/a	n/a	n/a	n/a	4.0	1.0	4.0	n/a	n/a	n/a	Run4BlockList	6	n/a	n/a	n/a	n/a	n/a	n/a	n/a	n/a	n/a	n/a	n/a	n/a	n/a	n/a	n/a	n/a	n/a	n/a	n/a	n/a	n/a	n/a	n/a	n/a	n/a	n/a	n/a	n/a	n/a	n/a	n/a	n/a	n/a	n/a	n/a	n/a	n/a	n/a	n/a	n/a	n/a	n/a	n/a	n/a	n/a	n/a	n/a	n/a	n/a	n/a	n/a	n/a	n/a	n/a	n/a	n/a	n/a	n/a	n/a	n/a	n/a	n/a	n/a	n/a	n/a	n/a	n/a	n/a	n/a	6.0	1.0	6.0	n/a	n/a	n/a	n/a	n/a	n/a	n/a	n/a	n/a	n/a	n/a	n/a	n/a	n/a	n/a	n/a	n/a	n/a	E4_06.jpg	500	0	610663	0	610663	0	TrialProc1	E4OfficeLargeBlockList	2500	0	608163	0	608163	0	608163	2500	c	1139	609302	96.998
108	2.5	000_R01_VA_allProc	89	1	"<?xml version=""1.0""?>\n<Clock xmlns:dt=""urn:schemas-microsoft-com:datatypes""><Description dt:dt=""string"">E-Prime Primary Realtime Clock</Description><StartTime><Timestamp dt:dt=""int"">0</Timestamp><DateUtc dt:dt=""string"">2019-12-03T22:31:14Z</DateUtc></StartTime><FrequencyChanges><FrequencyChange><Frequency dt:dt=""r8"">3020410</Frequency><Timestamp dt:dt=""r8"">75306034759</Timestamp><Current dt:dt=""r8"">0</Current><DateUtc dt:dt=""string"">2019-12-03T22:31:14Z</DateUtc></FrequencyChange></FrequencyChanges></Clock>\n"	000_R01_VA_allProc-89-1	60.002	1.0.0.229	1	-2002784074	Professional	2.0.10.356	2.0.10.356	12-03-2019	n/a	17:31:14	2.0.10.252	3	0	0	511165	25	511165	4000	-999999	687868	0	671162	0	Run4Proc	3	1	3	RunList	5	LowSmallED	8000	0	637162	0	637162	0	637162	0	D4LowSmallEDBlockProc	n/a	n/a	n/a	n/a	n/a	n/a	n/a	n/a	n/a	5.0	1.0	5.0	n/a	n/a	n/a	Run4BlockList	1	n/a	n/a	n/a	n/a	n/a	n/a	n/a	n/a	n/a	n/a	n/a	n/a	n/a	n/a	n/a	n/a	n/a	n/a	n/a	n/a	n/a	n/a	n/a	n/a	n/a	n/a	n/a	n/a	n/a	n/a	n/a	n/a	n/a	n/a	n/a	n/a	n/a	n/a	n/a	n/a	n/a	n/a	n/a	n/a	n/a	n/a	n/a	n/a	n/a	n/a	n/a	n/a	n/a	n/a	1.0	1.0	1.0	n/a	n/a	n/a	n/a	n/a	n/a	n/a	n/a	n/a	n/a	n/a	n/a	n/a	n/a	n/a	n/a	n/a	n/a	n/a	n/a	n/a	n/a	n/a	n/a	n/a	n/a	n/a	n/a	n/a	n/a	n/a	n/a	n/a	D4_01.jpg	500	0	621663	0	621663	0	TrialProc1	D4LowSmallEDBlockList	2500	0	619163	0	619163	0	619163	2500	c	1354	620517	107.998
111	2.5	000_R01_VA_allProc	89	1	"<?xml version=""1.0""?>\n<Clock xmlns:dt=""urn:schemas-microsoft-com:datatypes""><Description dt:dt=""string"">E-Prime Primary Realtime Clock</Description><StartTime><Timestamp dt:dt=""int"">0</Timestamp><DateUtc dt:dt=""string"">2019-12-03T22:31:14Z</DateUtc></StartTime><FrequencyChanges><FrequencyChange><Frequency dt:dt=""r8"">3020410</Frequency><Timestamp dt:dt=""r8"">75306034759</Timestamp><Current dt:dt=""r8"">0</Current><DateUtc dt:dt=""string"">2019-12-03T22:31:14Z</DateUtc></FrequencyChange></FrequencyChanges></Clock>\n"	000_R01_VA_allProc-89-1	60.002	1.0.0.229	1	-2002784074	Professional	2.0.10.356	2.0.10.356	12-03-2019	n/a	17:31:14	2.0.10.252	3	0	0	511165	25	511165	4000	-999999	687868	0	671162	0	Run4Proc	3	1	3	RunList	5	LowSmallED	8000	0	637162	0	637162	0	637162	0	D4LowSmallEDBlockProc	n/a	n/a	n/a	n/a	n/a	n/a	n/a	n/a	n/a	5.0	1.0	5.0	n/a	n/a	n/a	Run4BlockList	2	n/a	n/a	n/a	n/a	n/a	n/a	n/a	n/a	n/a	n/a	n/a	n/a	n/a	n/a	n/a	n/a	n/a	n/a	n/a	n/a	n/a	n/a	n/a	n/a	n/a	n/a	n/a	n/a	n/a	n/a	n/a	n/a	n/a	n/a	n/a	n/a	n/a	n/a	n/a	n/a	n/a	n/a	n/a	n/a	n/a	n/a	n/a	n/a	n/a	n/a	n/a	n/a	n/a	n/a	2.0	1.0	2.0	n/a	n/a	n/a	n/a	n/a	n/a	n/a	n/a	n/a	n/a	n/a	n/a	n/a	n/a	n/a	n/a	n/a	n/a	n/a	n/a	n/a	n/a	n/a	n/a	n/a	n/a	n/a	n/a	n/a	n/a	n/a	n/a	n/a	D4_02.jpg	500	0	624663	0	624663	0	TrialProc1	D4LowSmallEDBlockList	2500	0	622163	0	622163	0	622163	2500	c	874	623037	110.998
114	2.5	000_R01_VA_allProc	89	1	"<?xml version=""1.0""?>\n<Clock xmlns:dt=""urn:schemas-microsoft-com:datatypes""><Description dt:dt=""string"">E-Prime Primary Realtime Clock</Description><StartTime><Timestamp dt:dt=""int"">0</Timestamp><DateUtc dt:dt=""string"">2019-12-03T22:31:14Z</DateUtc></StartTime><FrequencyChanges><FrequencyChange><Frequency dt:dt=""r8"">3020410</Frequency><Timestamp dt:dt=""r8"">75306034759</Timestamp><Current dt:dt=""r8"">0</Current><DateUtc dt:dt=""string"">2019-12-03T22:31:14Z</DateUtc></FrequencyChange></FrequencyChanges></Clock>\n"	000_R01_VA_allProc-89-1	60.002	1.0.0.229	1	-2002784074	Professional	2.0.10.356	2.0.10.356	12-03-2019	n/a	17:31:14	2.0.10.252	3	0	0	511165	25	511165	4000	-999999	687868	0	671162	0	Run4Proc	3	1	3	RunList	5	LowSmallED	8000	0	637162	0	637162	0	637162	0	D4LowSmallEDBlockProc	n/a	n/a	n/a	n/a	n/a	n/a	n/a	n/a	n/a	5.0	1.0	5.0	n/a	n/a	n/a	Run4BlockList	3	n/a	n/a	n/a	n/a	n/a	n/a	n/a	n/a	n/a	n/a	n/a	n/a	n/a	n/a	n/a	n/a	n/a	n/a	n/a	n/a	n/a	n/a	n/a	n/a	n/a	n/a	n/a	n/a	n/a	n/a	n/a	n/a	n/a	n/a	n/a	n/a	n/a	n/a	n/a	n/a	n/a	n/a	n/a	n/a	n/a	n/a	n/a	n/a	n/a	n/a	n/a	n/a	n/a	n/a	3.0	1.0	3.0	n/a	n/a	n/a	n/a	n/a	n/a	n/a	n/a	n/a	n/a	n/a	n/a	n/a	n/a	n/a	n/a	n/a	n/a	n/a	n/a	n/a	n/a	n/a	n/a	n/a	n/a	n/a	n/a	n/a	n/a	n/a	n/a	n/a	D4_03.jpg	500	0	627663	0	627663	0	TrialProc1	D4LowSmallEDBlockList	2500	0	625163	0	625163	0	625163	2500	c	1130	626293	113.998
117	2.5	000_R01_VA_allProc	89	1	"<?xml version=""1.0""?>\n<Clock xmlns:dt=""urn:schemas-microsoft-com:datatypes""><Description dt:dt=""string"">E-Prime Primary Realtime Clock</Description><StartTime><Timestamp dt:dt=""int"">0</Timestamp><DateUtc dt:dt=""string"">2019-12-03T22:31:14Z</DateUtc></StartTime><FrequencyChanges><FrequencyChange><Frequency dt:dt=""r8"">3020410</Frequency><Timestamp dt:dt=""r8"">75306034759</Timestamp><Current dt:dt=""r8"">0</Current><DateUtc dt:dt=""string"">2019-12-03T22:31:14Z</DateUtc></FrequencyChange></FrequencyChanges></Clock>\n"	000_R01_VA_allProc-89-1	60.002	1.0.0.229	1	-2002784074	Professional	2.0.10.356	2.0.10.356	12-03-2019	n/a	17:31:14	2.0.10.252	3	0	0	511165	25	511165	4000	-999999	687868	0	671162	0	Run4Proc	3	1	3	RunList	5	LowSmallED	8000	0	637162	0	637162	0	637162	0	D4LowSmallEDBlockProc	n/a	n/a	n/a	n/a	n/a	n/a	n/a	n/a	n/a	5.0	1.0	5.0	n/a	n/a	n/a	Run4BlockList	4	n/a	n/a	n/a	n/a	n/a	n/a	n/a	n/a	n/a	n/a	n/a	n/a	n/a	n/a	n/a	n/a	n/a	n/a	n/a	n/a	n/a	n/a	n/a	n/a	n/a	n/a	n/a	n/a	n/a	n/a	n/a	n/a	n/a	n/a	n/a	n/a	n/a	n/a	n/a	n/a	n/a	n/a	n/a	n/a	n/a	n/a	n/a	n/a	n/a	n/a	n/a	n/a	n/a	n/a	4.0	1.0	4.0	n/a	n/a	n/a	n/a	n/a	n/a	n/a	n/a	n/a	n/a	n/a	n/a	n/a	n/a	n/a	n/a	n/a	n/a	n/a	n/a	n/a	n/a	n/a	n/a	n/a	n/a	n/a	n/a	n/a	n/a	n/a	n/a	n/a	D4_04.jpg	500	1	630663	-1	630662	0	TrialProc1	D4LowSmallEDBlockList	2500	0	628163	0	628163	0	628163	2499	c	882	629045	116.998
120	2.5	000_R01_VA_allProc	89	1	"<?xml version=""1.0""?>\n<Clock xmlns:dt=""urn:schemas-microsoft-com:datatypes""><Description dt:dt=""string"">E-Prime Primary Realtime Clock</Description><StartTime><Timestamp dt:dt=""int"">0</Timestamp><DateUtc dt:dt=""string"">2019-12-03T22:31:14Z</DateUtc></StartTime><FrequencyChanges><FrequencyChange><Frequency dt:dt=""r8"">3020410</Frequency><Timestamp dt:dt=""r8"">75306034759</Timestamp><Current dt:dt=""r8"">0</Current><DateUtc dt:dt=""string"">2019-12-03T22:31:14Z</DateUtc></FrequencyChange></FrequencyChanges></Clock>\n"	000_R01_VA_allProc-89-1	60.002	1.0.0.229	1	-2002784074	Professional	2.0.10.356	2.0.10.356	12-03-2019	n/a	17:31:14	2.0.10.252	3	0	0	511165	25	511165	4000	-999999	687868	0	671162	0	Run4Proc	3	1	3	RunList	5	LowSmallED	8000	0	637162	0	637162	0	637162	0	D4LowSmallEDBlockProc	n/a	n/a	n/a	n/a	n/a	n/a	n/a	n/a	n/a	5.0	1.0	5.0	n/a	n/a	n/a	Run4BlockList	5	n/a	n/a	n/a	n/a	n/a	n/a	n/a	n/a	n/a	n/a	n/a	n/a	n/a	n/a	n/a	n/a	n/a	n/a	n/a	n/a	n/a	n/a	n/a	n/a	n/a	n/a	n/a	n/a	n/a	n/a	n/a	n/a	n/a	n/a	n/a	n/a	n/a	n/a	n/a	n/a	n/a	n/a	n/a	n/a	n/a	n/a	n/a	n/a	n/a	n/a	n/a	n/a	n/a	n/a	5.0	1.0	5.0	n/a	n/a	n/a	n/a	n/a	n/a	n/a	n/a	n/a	n/a	n/a	n/a	n/a	n/a	n/a	n/a	n/a	n/a	n/a	n/a	n/a	n/a	n/a	n/a	n/a	n/a	n/a	n/a	n/a	n/a	n/a	n/a	n/a	D4_05.jpg	500	0	633662	0	633662	0	TrialProc1	D4LowSmallEDBlockList	2500	1	631163	1	631163	0	631162	2500	c	1435	632597	119.997
123	2.5	000_R01_VA_allProc	89	1	"<?xml version=""1.0""?>\n<Clock xmlns:dt=""urn:schemas-microsoft-com:datatypes""><Description dt:dt=""string"">E-Prime Primary Realtime Clock</Description><StartTime><Timestamp dt:dt=""int"">0</Timestamp><DateUtc dt:dt=""string"">2019-12-03T22:31:14Z</DateUtc></StartTime><FrequencyChanges><FrequencyChange><Frequency dt:dt=""r8"">3020410</Frequency><Timestamp dt:dt=""r8"">75306034759</Timestamp><Current dt:dt=""r8"">0</Current><DateUtc dt:dt=""string"">2019-12-03T22:31:14Z</DateUtc></FrequencyChange></FrequencyChanges></Clock>\n"	000_R01_VA_allProc-89-1	60.002	1.0.0.229	1	-2002784074	Professional	2.0.10.356	2.0.10.356	12-03-2019	n/a	17:31:14	2.0.10.252	3	0	0	511165	25	511165	4000	-999999	687868	0	671162	0	Run4Proc	3	1	3	RunList	5	LowSmallED	8000	0	637162	0	637162	0	637162	0	D4LowSmallEDBlockProc	n/a	n/a	n/a	n/a	n/a	n/a	n/a	n/a	n/a	5.0	1.0	5.0	n/a	n/a	n/a	Run4BlockList	6	n/a	n/a	n/a	n/a	n/a	n/a	n/a	n/a	n/a	n/a	n/a	n/a	n/a	n/a	n/a	n/a	n/a	n/a	n/a	n/a	n/a	n/a	n/a	n/a	n/a	n/a	n/a	n/a	n/a	n/a	n/a	n/a	n/a	n/a	n/a	n/a	n/a	n/a	n/a	n/a	n/a	n/a	n/a	n/a	n/a	n/a	n/a	n/a	n/a	n/a	n/a	n/a	n/a	n/a	6.0	1.0	6.0	n/a	n/a	n/a	n/a	n/a	n/a	n/a	n/a	n/a	n/a	n/a	n/a	n/a	n/a	n/a	n/a	n/a	n/a	n/a	n/a	n/a	n/a	n/a	n/a	n/a	n/a	n/a	n/a	n/a	n/a	n/a	n/a	n/a	D4_06.jpg	500	0	636662	0	636662	0	TrialProc1	D4LowSmallEDBlockList	2500	0	634162	0	634162	0	634162	2500	c	931	635093	122.997
134	2.5	000_R01_VA_allProc	89	1	"<?xml version=""1.0""?>\n<Clock xmlns:dt=""urn:schemas-microsoft-com:datatypes""><Description dt:dt=""string"">E-Prime Primary Realtime Clock</Description><StartTime><Timestamp dt:dt=""int"">0</Timestamp><DateUtc dt:dt=""string"">2019-12-03T22:31:14Z</DateUtc></StartTime><FrequencyChanges><FrequencyChange><Frequency dt:dt=""r8"">3020410</Frequency><Timestamp dt:dt=""r8"">75306034759</Timestamp><Current dt:dt=""r8"">0</Current><DateUtc dt:dt=""string"">2019-12-03T22:31:14Z</DateUtc></FrequencyChange></FrequencyChanges></Clock>\n"	000_R01_VA_allProc-89-1	60.002	1.0.0.229	1	-2002784074	Professional	2.0.10.356	2.0.10.356	12-03-2019	n/a	17:31:14	2.0.10.252	3	0	0	511165	25	511165	4000	-999999	687868	0	671162	0	Run4Proc	3	1	3	RunList	6	HighLargeED	8000	0	663162	0	663162	0	663162	0	A4HighLargeEDBlockProc	n/a	n/a	n/a	n/a	n/a	n/a	n/a	n/a	n/a	6.0	1.0	6.0	n/a	n/a	n/a	Run4BlockList	1	n/a	n/a	n/a	n/a	n/a	n/a	n/a	n/a	n/a	1.0	1.0	1.0	n/a	n/a	n/a	n/a	n/a	n/a	n/a	n/a	n/a	n/a	n/a	n/a	n/a	n/a	n/a	n/a	n/a	n/a	n/a	n/a	n/a	n/a	n/a	n/a	n/a	n/a	n/a	n/a	n/a	n/a	n/a	n/a	n/a	n/a	n/a	n/a	n/a	n/a	n/a	n/a	n/a	n/a	n/a	n/a	n/a	n/a	n/a	n/a	n/a	n/a	n/a	n/a	n/a	n/a	n/a	n/a	n/a	n/a	n/a	n/a	n/a	n/a	n/a	n/a	n/a	n/a	n/a	n/a	n/a	n/a	n/a	n/a	n/a	n/a	n/a	n/a	n/a	n/a	A4_01.jpg	500	0	647662	0	647662	0	TrialProc1	A4HighLargeEDBlockList	2500	0	645162	0	645162	0	645162	2500	d	1219	646381	133.997
137	2.5	000_R01_VA_allProc	89	1	"<?xml version=""1.0""?>\n<Clock xmlns:dt=""urn:schemas-microsoft-com:datatypes""><Description dt:dt=""string"">E-Prime Primary Realtime Clock</Description><StartTime><Timestamp dt:dt=""int"">0</Timestamp><DateUtc dt:dt=""string"">2019-12-03T22:31:14Z</DateUtc></StartTime><FrequencyChanges><FrequencyChange><Frequency dt:dt=""r8"">3020410</Frequency><Timestamp dt:dt=""r8"">75306034759</Timestamp><Current dt:dt=""r8"">0</Current><DateUtc dt:dt=""string"">2019-12-03T22:31:14Z</DateUtc></FrequencyChange></FrequencyChanges></Clock>\n"	000_R01_VA_allProc-89-1	60.002	1.0.0.229	1	-2002784074	Professional	2.0.10.356	2.0.10.356	12-03-2019	n/a	17:31:14	2.0.10.252	3	0	0	511165	25	511165	4000	-999999	687868	0	671162	0	Run4Proc	3	1	3	RunList	6	HighLargeED	8000	0	663162	0	663162	0	663162	0	A4HighLargeEDBlockProc	n/a	n/a	n/a	n/a	n/a	n/a	n/a	n/a	n/a	6.0	1.0	6.0	n/a	n/a	n/a	Run4BlockList	2	n/a	n/a	n/a	n/a	n/a	n/a	n/a	n/a	n/a	2.0	1.0	2.0	n/a	n/a	n/a	n/a	n/a	n/a	n/a	n/a	n/a	n/a	n/a	n/a	n/a	n/a	n/a	n/a	n/a	n/a	n/a	n/a	n/a	n/a	n/a	n/a	n/a	n/a	n/a	n/a	n/a	n/a	n/a	n/a	n/a	n/a	n/a	n/a	n/a	n/a	n/a	n/a	n/a	n/a	n/a	n/a	n/a	n/a	n/a	n/a	n/a	n/a	n/a	n/a	n/a	n/a	n/a	n/a	n/a	n/a	n/a	n/a	n/a	n/a	n/a	n/a	n/a	n/a	n/a	n/a	n/a	n/a	n/a	n/a	n/a	n/a	n/a	n/a	n/a	n/a	A4_02.jpg	500	0	650662	0	650662	0	TrialProc1	A4HighLargeEDBlockList	2500	0	648162	0	648162	0	648162	2500	d	691	648853	136.997
140	2.5	000_R01_VA_allProc	89	1	"<?xml version=""1.0""?>\n<Clock xmlns:dt=""urn:schemas-microsoft-com:datatypes""><Description dt:dt=""string"">E-Prime Primary Realtime Clock</Description><StartTime><Timestamp dt:dt=""int"">0</Timestamp><DateUtc dt:dt=""string"">2019-12-03T22:31:14Z</DateUtc></StartTime><FrequencyChanges><FrequencyChange><Frequency dt:dt=""r8"">3020410</Frequency><Timestamp dt:dt=""r8"">75306034759</Timestamp><Current dt:dt=""r8"">0</Current><DateUtc dt:dt=""string"">2019-12-03T22:31:14Z</DateUtc></FrequencyChange></FrequencyChanges></Clock>\n"	000_R01_VA_allProc-89-1	60.002	1.0.0.229	1	-2002784074	Professional	2.0.10.356	2.0.10.356	12-03-2019	n/a	17:31:14	2.0.10.252	3	0	0	511165	25	511165	4000	-999999	687868	0	671162	0	Run4Proc	3	1	3	RunList	6	HighLargeED	8000	0	663162	0	663162	0	663162	0	A4HighLargeEDBlockProc	n/a	n/a	n/a	n/a	n/a	n/a	n/a	n/a	n/a	6.0	1.0	6.0	n/a	n/a	n/a	Run4BlockList	3	n/a	n/a	n/a	n/a	n/a	n/a	n/a	n/a	n/a	3.0	1.0	3.0	n/a	n/a	n/a	n/a	n/a	n/a	n/a	n/a	n/a	n/a	n/a	n/a	n/a	n/a	n/a	n/a	n/a	n/a	n/a	n/a	n/a	n/a	n/a	n/a	n/a	n/a	n/a	n/a	n/a	n/a	n/a	n/a	n/a	n/a	n/a	n/a	n/a	n/a	n/a	n/a	n/a	n/a	n/a	n/a	n/a	n/a	n/a	n/a	n/a	n/a	n/a	n/a	n/a	n/a	n/a	n/a	n/a	n/a	n/a	n/a	n/a	n/a	n/a	n/a	n/a	n/a	n/a	n/a	n/a	n/a	n/a	n/a	n/a	n/a	n/a	n/a	n/a	n/a	A4_03.jpg	500	0	653662	0	653662	0	TrialProc1	A4HighLargeEDBlockList	2500	0	651162	0	651162	0	651162	2500	d	699	651861	139.997
143	2.5	000_R01_VA_allProc	89	1	"<?xml version=""1.0""?>\n<Clock xmlns:dt=""urn:schemas-microsoft-com:datatypes""><Description dt:dt=""string"">E-Prime Primary Realtime Clock</Description><StartTime><Timestamp dt:dt=""int"">0</Timestamp><DateUtc dt:dt=""string"">2019-12-03T22:31:14Z</DateUtc></StartTime><FrequencyChanges><FrequencyChange><Frequency dt:dt=""r8"">3020410</Frequency><Timestamp dt:dt=""r8"">75306034759</Timestamp><Current dt:dt=""r8"">0</Current><DateUtc dt:dt=""string"">2019-12-03T22:31:14Z</DateUtc></FrequencyChange></FrequencyChanges></Clock>\n"	000_R01_VA_allProc-89-1	60.002	1.0.0.229	1	-2002784074	Professional	2.0.10.356	2.0.10.356	12-03-2019	n/a	17:31:14	2.0.10.252	3	0	0	511165	25	511165	4000	-999999	687868	0	671162	0	Run4Proc	3	1	3	RunList	6	HighLargeED	8000	0	663162	0	663162	0	663162	0	A4HighLargeEDBlockProc	n/a	n/a	n/a	n/a	n/a	n/a	n/a	n/a	n/a	6.0	1.0	6.0	n/a	n/a	n/a	Run4BlockList	4	n/a	n/a	n/a	n/a	n/a	n/a	n/a	n/a	n/a	4.0	1.0	4.0	n/a	n/a	n/a	n/a	n/a	n/a	n/a	n/a	n/a	n/a	n/a	n/a	n/a	n/a	n/a	n/a	n/a	n/a	n/a	n/a	n/a	n/a	n/a	n/a	n/a	n/a	n/a	n/a	n/a	n/a	n/a	n/a	n/a	n/a	n/a	n/a	n/a	n/a	n/a	n/a	n/a	n/a	n/a	n/a	n/a	n/a	n/a	n/a	n/a	n/a	n/a	n/a	n/a	n/a	n/a	n/a	n/a	n/a	n/a	n/a	n/a	n/a	n/a	n/a	n/a	n/a	n/a	n/a	n/a	n/a	n/a	n/a	n/a	n/a	n/a	n/a	n/a	n/a	A4_04.jpg	500	0	656662	0	656662	0	TrialProc1	A4HighLargeEDBlockList	2500	0	654162	0	654162	0	654162	2500	d	435	654597	142.997
146	2.5	000_R01_VA_allProc	89	1	"<?xml version=""1.0""?>\n<Clock xmlns:dt=""urn:schemas-microsoft-com:datatypes""><Description dt:dt=""string"">E-Prime Primary Realtime Clock</Description><StartTime><Timestamp dt:dt=""int"">0</Timestamp><DateUtc dt:dt=""string"">2019-12-03T22:31:14Z</DateUtc></StartTime><FrequencyChanges><FrequencyChange><Frequency dt:dt=""r8"">3020410</Frequency><Timestamp dt:dt=""r8"">75306034759</Timestamp><Current dt:dt=""r8"">0</Current><DateUtc dt:dt=""string"">2019-12-03T22:31:14Z</DateUtc></FrequencyChange></FrequencyChanges></Clock>\n"	000_R01_VA_allProc-89-1	60.002	1.0.0.229	1	-2002784074	Professional	2.0.10.356	2.0.10.356	12-03-2019	n/a	17:31:14	2.0.10.252	3	0	0	511165	25	511165	4000	-999999	687868	0	671162	0	Run4Proc	3	1	3	RunList	6	HighLargeED	8000	0	663162	0	663162	0	663162	0	A4HighLargeEDBlockProc	n/a	n/a	n/a	n/a	n/a	n/a	n/a	n/a	n/a	6.0	1.0	6.0	n/a	n/a	n/a	Run4BlockList	5	n/a	n/a	n/a	n/a	n/a	n/a	n/a	n/a	n/a	5.0	1.0	5.0	n/a	n/a	n/a	n/a	n/a	n/a	n/a	n/a	n/a	n/a	n/a	n/a	n/a	n/a	n/a	n/a	n/a	n/a	n/a	n/a	n/a	n/a	n/a	n/a	n/a	n/a	n/a	n/a	n/a	n/a	n/a	n/a	n/a	n/a	n/a	n/a	n/a	n/a	n/a	n/a	n/a	n/a	n/a	n/a	n/a	n/a	n/a	n/a	n/a	n/a	n/a	n/a	n/a	n/a	n/a	n/a	n/a	n/a	n/a	n/a	n/a	n/a	n/a	n/a	n/a	n/a	n/a	n/a	n/a	n/a	n/a	n/a	n/a	n/a	n/a	n/a	n/a	n/a	A4_05.jpg	500	0	659662	0	659662	0	TrialProc1	A4HighLargeEDBlockList	2500	0	657162	0	657162	0	657162	2500	d	1051	658213	145.997
149	2.5	000_R01_VA_allProc	89	1	"<?xml version=""1.0""?>\n<Clock xmlns:dt=""urn:schemas-microsoft-com:datatypes""><Description dt:dt=""string"">E-Prime Primary Realtime Clock</Description><StartTime><Timestamp dt:dt=""int"">0</Timestamp><DateUtc dt:dt=""string"">2019-12-03T22:31:14Z</DateUtc></StartTime><FrequencyChanges><FrequencyChange><Frequency dt:dt=""r8"">3020410</Frequency><Timestamp dt:dt=""r8"">75306034759</Timestamp><Current dt:dt=""r8"">0</Current><DateUtc dt:dt=""string"">2019-12-03T22:31:14Z</DateUtc></FrequencyChange></FrequencyChanges></Clock>\n"	000_R01_VA_allProc-89-1	60.002	1.0.0.229	1	-2002784074	Professional	2.0.10.356	2.0.10.356	12-03-2019	n/a	17:31:14	2.0.10.252	3	0	0	511165	25	511165	4000	-999999	687868	0	671162	0	Run4Proc	3	1	3	RunList	6	HighLargeED	8000	0	663162	0	663162	0	663162	0	A4HighLargeEDBlockProc	n/a	n/a	n/a	n/a	n/a	n/a	n/a	n/a	n/a	6.0	1.0	6.0	n/a	n/a	n/a	Run4BlockList	6	n/a	n/a	n/a	n/a	n/a	n/a	n/a	n/a	n/a	6.0	1.0	6.0	n/a	n/a	n/a	n/a	n/a	n/a	n/a	n/a	n/a	n/a	n/a	n/a	n/a	n/a	n/a	n/a	n/a	n/a	n/a	n/a	n/a	n/a	n/a	n/a	n/a	n/a	n/a	n/a	n/a	n/a	n/a	n/a	n/a	n/a	n/a	n/a	n/a	n/a	n/a	n/a	n/a	n/a	n/a	n/a	n/a	n/a	n/a	n/a	n/a	n/a	n/a	n/a	n/a	n/a	n/a	n/a	n/a	n/a	n/a	n/a	n/a	n/a	n/a	n/a	n/a	n/a	n/a	n/a	n/a	n/a	n/a	n/a	n/a	n/a	n/a	n/a	n/a	n/a	A4_06.jpg	500	0	662662	0	662662	0	TrialProc1	A4HighLargeEDBlockList	2500	0	660162	0	660162	0	660162	2500	d	1507	661669	148.997
