onset	duration	experiment_name	sub	ses	clock_information	datafile_basename	display_refreshrate	experiment_version	group	randomseed	runtime_capabilities	runtime_version	runtimeversionexpected	session_date	session_start_date_time_utc	session_time	studio_version	block	fixation2trs_durationerror	fixation2trs_offsetdelay	fixation2trs_offsettime	fixation2trs_onsetdelay	fixation2trs_onsettime	fixation2trs_onsettoonsettime	goodwork_durationerror	goodwork_finishtime	goodwork_onsetdelay	goodwork_onsettime	goodwork_onsettoonsettime	procedure_block	runlist	runlist_cycle	runlist_sample	running_block	trial	condition	interblockinterval_duration	interblockinterval_durationerror	interblockinterval_finishtime	interblockinterval_offsetdelay	interblockinterval_offsettime	interblockinterval_onsetdelay	interblockinterval_onsettime	interblockinterval_onsettoonsettime	procedure_trial	run1blocklist	run1blocklist_cycle	run1blocklist_sample	run2blocklist	run2blocklist_cycle	run2blocklist_sample	run3blocklist	run3blocklist_cycle	run3blocklist_sample	run4blocklist	run4blocklist_cycle	run4blocklist_sample	run5blocklist	run5blocklist_cycle	run5blocklist_sample	running_trial	subtrial	a1highlargeedblocklist	a1highlargeedblocklist_cycle	a1highlargeedblocklist_sample	a2highlargeedblocklist	a2highlargeedblocklist_cycle	a2highlargeedblocklist_sample	a3highlargeedblocklist	a3highlargeedblocklist_cycle	a3highlargeedblocklist_sample	a4highlargeedblocklist	a4highlargeedblocklist_cycle	a4highlargeedblocklist_sample	a5highlargeedblocklist	a5highlargeedblocklist_cycle	a5highlargeedblocklist_sample	b1highsmalledblocklist	b1highsmalledblocklist_cycle	b1highsmalledblocklist_sample	b2highsmalledblocklist	b2highsmalledblocklist_cycle	b2highsmalledblocklist_sample	b3highsmalledblocklist	b3highsmalledblocklist_cycle	b3highsmalledblocklist_sample	b4highsmalledblocklist	b4highsmalledblocklist_cycle	b4highsmalledblocklist_sample	b5highsmalledblocklist	b5highsmalledblocklist_cycle	b5highsmalledblocklist_sample	c1lowlargeedblocklist	c1lowlargeedblocklist_cycle	c1lowlargeedblocklist_sample	c2lowlargeedblocklist	c2lowlargeedblocklist_cycle	c2lowlargeedblocklist_sample	c3lowlargeedblocklist	c3lowlargeedblocklist_cycle	c3lowlargeedblocklist_sample	c4lowlargeedblocklist	c4lowlargeedblocklist_cycle	c4lowlargeedblocklist_sample	c5lowlargeedblocklist	c5lowlargeedblocklist_cycle	c5lowlargeedblocklist_sample	d1lowsmalledblocklist	d1lowsmalledblocklist_cycle	d1lowsmalledblocklist_sample	d2highlargeedblocklist	d2highlargeedblocklist_cycle	d2highlargeedblocklist_sample	d3lowsmalledblocklist	d3lowsmalledblocklist_cycle	d3lowsmalledblocklist_sample	d4lowsmalledblocklist	d4lowsmalledblocklist_cycle	d4lowsmalledblocklist_sample	d5lowsmalledblocklist	d5lowsmalledblocklist_cycle	d5lowsmalledblocklist_sample	e1officelargeblocklist	e1officelargeblocklist_cycle	e1officelargeblocklist_sample	e2officelargeblocklist	e2officelargeblocklist_cycle	e2officelargeblocklist_sample	e3officelargeblocklist	e3officelargeblocklist_cycle	e3officelargeblocklist_sample	e4officelargeblocklist	e4officelargeblocklist_cycle	e4officelargeblocklist_sample	e5officelargeblocklist	e5officelargeblocklist_cycle	e5officelargeblocklist_sample	f1officesmallblocklist	f1officesmallblocklist_cycle	f1officesmallblocklist_sample	f2officesmallblocklist	f2officesmallblocklist_cycle	f2officesmallblocklist_sample	f3officesmallblocklist	f3officesmallblocklist_cycle	f3officesmallblocklist_sample	f4officesmallblocklist	f4officesmallblocklist_cycle	f4officesmallblocklist_sample	f5officesmallblocklist	f5officesmallblocklist_cycle	f5officesmallblocklist_sample	filename	isi_duration	isi_durationerror	isi_finishtime	isi_onsetdelay	isi_onsettime	isi_onsettoonsettime	procedure_subtrial	running_subtrial	stimslide_duration	stimslide_durationerror	stimslide_finishtime	stimslide_offsetdelay	stimslide_offsettime	stimslide_onsetdelay	stimslide_onsettime	stimslide_onsettoonsettime	stimslide_resp	stimslide_rt	stimslide_rttime	onset_unrounded
4	2.5	000_R01_VB_allProc	37	1	"<?xml version=""1.0""?>\n<Clock xmlns:dt=""urn:schemas-microsoft-com:datatypes""><Description dt:dt=""string"">E-Prime Primary Realtime Clock</Description><StartTime><Timestamp dt:dt=""int"">0</Timestamp><DateUtc dt:dt=""string"">2018-10-30T22:34:47Z</DateUtc></StartTime><FrequencyChanges><FrequencyChange><Frequency dt:dt=""r8"">3020419</Frequency><Timestamp dt:dt=""r8"">26919442703</Timestamp><Current dt:dt=""r8"">0</Current><DateUtc dt:dt=""string"">2018-10-30T22:34:47Z</DateUtc></FrequencyChange></FrequencyChanges></Clock>\n"	000_R01_VB_allProc-37-1	60.023	1.0.0.185	1	1150214588	Professional	2.0.10.356	2.0.10.356	10-30-2018	n/a	18:34:47	2.0.10.252	5	0	0	931882	19	931882	3998	-999999	1113331	-3	1091822	0	Run1Proc	5	1	5	RunList	1	HighLargeED	8000	0	953873	0	953873	-1	953873	0	A1HighLargeEDBlockProc	1.0	1.0	1.0	n/a	n/a	n/a	n/a	n/a	n/a	n/a	n/a	n/a	n/a	n/a	n/a	Run1BlockList	1	1.0	1.0	1.0	n/a	n/a	n/a	n/a	n/a	n/a	n/a	n/a	n/a	n/a	n/a	n/a	n/a	n/a	n/a	n/a	n/a	n/a	n/a	n/a	n/a	n/a	n/a	n/a	n/a	n/a	n/a	n/a	n/a	n/a	n/a	n/a	n/a	n/a	n/a	n/a	n/a	n/a	n/a	n/a	n/a	n/a	n/a	n/a	n/a	n/a	n/a	n/a	n/a	n/a	n/a	n/a	n/a	n/a	n/a	n/a	n/a	n/a	n/a	n/a	n/a	n/a	n/a	n/a	n/a	n/a	n/a	n/a	n/a	n/a	n/a	n/a	n/a	n/a	n/a	n/a	n/a	n/a	n/a	n/a	n/a	n/a	n/a	n/a	n/a	n/a	n/a	A1_01.jpg	500	0	938379	-1	938379	0	TrialProc1	A1HighLargeEDBlockList	2500	0	935880	0	935880	-2	935880	2499	d	1407	937287	4.0
7	2.5	000_R01_VB_allProc	37	1	"<?xml version=""1.0""?>\n<Clock xmlns:dt=""urn:schemas-microsoft-com:datatypes""><Description dt:dt=""string"">E-Prime Primary Realtime Clock</Description><StartTime><Timestamp dt:dt=""int"">0</Timestamp><DateUtc dt:dt=""string"">2018-10-30T22:34:47Z</DateUtc></StartTime><FrequencyChanges><FrequencyChange><Frequency dt:dt=""r8"">3020419</Frequency><Timestamp dt:dt=""r8"">26919442703</Timestamp><Current dt:dt=""r8"">0</Current><DateUtc dt:dt=""string"">2018-10-30T22:34:47Z</DateUtc></FrequencyChange></FrequencyChanges></Clock>\n"	000_R01_VB_allProc-37-1	60.023	1.0.0.185	1	1150214588	Professional	2.0.10.356	2.0.10.356	10-30-2018	n/a	18:34:47	2.0.10.252	5	0	0	931882	19	931882	3998	-999999	1113331	-3	1091822	0	Run1Proc	5	1	5	RunList	1	HighLargeED	8000	0	953873	0	953873	-1	953873	0	A1HighLargeEDBlockProc	1.0	1.0	1.0	n/a	n/a	n/a	n/a	n/a	n/a	n/a	n/a	n/a	n/a	n/a	n/a	Run1BlockList	2	2.0	1.0	2.0	n/a	n/a	n/a	n/a	n/a	n/a	n/a	n/a	n/a	n/a	n/a	n/a	n/a	n/a	n/a	n/a	n/a	n/a	n/a	n/a	n/a	n/a	n/a	n/a	n/a	n/a	n/a	n/a	n/a	n/a	n/a	n/a	n/a	n/a	n/a	n/a	n/a	n/a	n/a	n/a	n/a	n/a	n/a	n/a	n/a	n/a	n/a	n/a	n/a	n/a	n/a	n/a	n/a	n/a	n/a	n/a	n/a	n/a	n/a	n/a	n/a	n/a	n/a	n/a	n/a	n/a	n/a	n/a	n/a	n/a	n/a	n/a	n/a	n/a	n/a	n/a	n/a	n/a	n/a	n/a	n/a	n/a	n/a	n/a	n/a	n/a	n/a	A1_02.jpg	500	0	941378	-1	941378	0	TrialProc1	A1HighLargeEDBlockList	2500	0	938879	0	938879	0	938879	2499	d	840	939719	6.9990000000000006
10	2.5	000_R01_VB_allProc	37	1	"<?xml version=""1.0""?>\n<Clock xmlns:dt=""urn:schemas-microsoft-com:datatypes""><Description dt:dt=""string"">E-Prime Primary Realtime Clock</Description><StartTime><Timestamp dt:dt=""int"">0</Timestamp><DateUtc dt:dt=""string"">2018-10-30T22:34:47Z</DateUtc></StartTime><FrequencyChanges><FrequencyChange><Frequency dt:dt=""r8"">3020419</Frequency><Timestamp dt:dt=""r8"">26919442703</Timestamp><Current dt:dt=""r8"">0</Current><DateUtc dt:dt=""string"">2018-10-30T22:34:47Z</DateUtc></FrequencyChange></FrequencyChanges></Clock>\n"	000_R01_VB_allProc-37-1	60.023	1.0.0.185	1	1150214588	Professional	2.0.10.356	2.0.10.356	10-30-2018	n/a	18:34:47	2.0.10.252	5	0	0	931882	19	931882	3998	-999999	1113331	-3	1091822	0	Run1Proc	5	1	5	RunList	1	HighLargeED	8000	0	953873	0	953873	-1	953873	0	A1HighLargeEDBlockProc	1.0	1.0	1.0	n/a	n/a	n/a	n/a	n/a	n/a	n/a	n/a	n/a	n/a	n/a	n/a	Run1BlockList	3	3.0	1.0	3.0	n/a	n/a	n/a	n/a	n/a	n/a	n/a	n/a	n/a	n/a	n/a	n/a	n/a	n/a	n/a	n/a	n/a	n/a	n/a	n/a	n/a	n/a	n/a	n/a	n/a	n/a	n/a	n/a	n/a	n/a	n/a	n/a	n/a	n/a	n/a	n/a	n/a	n/a	n/a	n/a	n/a	n/a	n/a	n/a	n/a	n/a	n/a	n/a	n/a	n/a	n/a	n/a	n/a	n/a	n/a	n/a	n/a	n/a	n/a	n/a	n/a	n/a	n/a	n/a	n/a	n/a	n/a	n/a	n/a	n/a	n/a	n/a	n/a	n/a	n/a	n/a	n/a	n/a	n/a	n/a	n/a	n/a	n/a	n/a	n/a	n/a	n/a	A1_03.jpg	500	0	944377	-1	944377	0	TrialProc1	A1HighLargeEDBlockList	2500	0	941878	0	941878	0	941878	2499	d	1121	942999	9.998000000000001
13	2.5	000_R01_VB_allProc	37	1	"<?xml version=""1.0""?>\n<Clock xmlns:dt=""urn:schemas-microsoft-com:datatypes""><Description dt:dt=""string"">E-Prime Primary Realtime Clock</Description><StartTime><Timestamp dt:dt=""int"">0</Timestamp><DateUtc dt:dt=""string"">2018-10-30T22:34:47Z</DateUtc></StartTime><FrequencyChanges><FrequencyChange><Frequency dt:dt=""r8"">3020419</Frequency><Timestamp dt:dt=""r8"">26919442703</Timestamp><Current dt:dt=""r8"">0</Current><DateUtc dt:dt=""string"">2018-10-30T22:34:47Z</DateUtc></FrequencyChange></FrequencyChanges></Clock>\n"	000_R01_VB_allProc-37-1	60.023	1.0.0.185	1	1150214588	Professional	2.0.10.356	2.0.10.356	10-30-2018	n/a	18:34:47	2.0.10.252	5	0	0	931882	19	931882	3998	-999999	1113331	-3	1091822	0	Run1Proc	5	1	5	RunList	1	HighLargeED	8000	0	953873	0	953873	-1	953873	0	A1HighLargeEDBlockProc	1.0	1.0	1.0	n/a	n/a	n/a	n/a	n/a	n/a	n/a	n/a	n/a	n/a	n/a	n/a	Run1BlockList	4	4.0	1.0	4.0	n/a	n/a	n/a	n/a	n/a	n/a	n/a	n/a	n/a	n/a	n/a	n/a	n/a	n/a	n/a	n/a	n/a	n/a	n/a	n/a	n/a	n/a	n/a	n/a	n/a	n/a	n/a	n/a	n/a	n/a	n/a	n/a	n/a	n/a	n/a	n/a	n/a	n/a	n/a	n/a	n/a	n/a	n/a	n/a	n/a	n/a	n/a	n/a	n/a	n/a	n/a	n/a	n/a	n/a	n/a	n/a	n/a	n/a	n/a	n/a	n/a	n/a	n/a	n/a	n/a	n/a	n/a	n/a	n/a	n/a	n/a	n/a	n/a	n/a	n/a	n/a	n/a	n/a	n/a	n/a	n/a	n/a	n/a	n/a	n/a	n/a	n/a	A1_04.jpg	500	0	947376	-1	947376	0	TrialProc1	A1HighLargeEDBlockList	2500	0	944877	0	944877	0	944877	2499	d	1498	946375	12.997
16	2.5	000_R01_VB_allProc	37	1	"<?xml version=""1.0""?>\n<Clock xmlns:dt=""urn:schemas-microsoft-com:datatypes""><Description dt:dt=""string"">E-Prime Primary Realtime Clock</Description><StartTime><Timestamp dt:dt=""int"">0</Timestamp><DateUtc dt:dt=""string"">2018-10-30T22:34:47Z</DateUtc></StartTime><FrequencyChanges><FrequencyChange><Frequency dt:dt=""r8"">3020419</Frequency><Timestamp dt:dt=""r8"">26919442703</Timestamp><Current dt:dt=""r8"">0</Current><DateUtc dt:dt=""string"">2018-10-30T22:34:47Z</DateUtc></FrequencyChange></FrequencyChanges></Clock>\n"	000_R01_VB_allProc-37-1	60.023	1.0.0.185	1	1150214588	Professional	2.0.10.356	2.0.10.356	10-30-2018	n/a	18:34:47	2.0.10.252	5	0	0	931882	19	931882	3998	-999999	1113331	-3	1091822	0	Run1Proc	5	1	5	RunList	1	HighLargeED	8000	0	953873	0	953873	-1	953873	0	A1HighLargeEDBlockProc	1.0	1.0	1.0	n/a	n/a	n/a	n/a	n/a	n/a	n/a	n/a	n/a	n/a	n/a	n/a	Run1BlockList	5	5.0	1.0	5.0	n/a	n/a	n/a	n/a	n/a	n/a	n/a	n/a	n/a	n/a	n/a	n/a	n/a	n/a	n/a	n/a	n/a	n/a	n/a	n/a	n/a	n/a	n/a	n/a	n/a	n/a	n/a	n/a	n/a	n/a	n/a	n/a	n/a	n/a	n/a	n/a	n/a	n/a	n/a	n/a	n/a	n/a	n/a	n/a	n/a	n/a	n/a	n/a	n/a	n/a	n/a	n/a	n/a	n/a	n/a	n/a	n/a	n/a	n/a	n/a	n/a	n/a	n/a	n/a	n/a	n/a	n/a	n/a	n/a	n/a	n/a	n/a	n/a	n/a	n/a	n/a	n/a	n/a	n/a	n/a	n/a	n/a	n/a	n/a	n/a	n/a	n/a	A1_05.jpg	500	0	950375	-1	950375	0	TrialProc1	A1HighLargeEDBlockList	2500	0	947876	0	947876	0	947876	2499	d	1331	949207	15.996
19	2.5	000_R01_VB_allProc	37	1	"<?xml version=""1.0""?>\n<Clock xmlns:dt=""urn:schemas-microsoft-com:datatypes""><Description dt:dt=""string"">E-Prime Primary Realtime Clock</Description><StartTime><Timestamp dt:dt=""int"">0</Timestamp><DateUtc dt:dt=""string"">2018-10-30T22:34:47Z</DateUtc></StartTime><FrequencyChanges><FrequencyChange><Frequency dt:dt=""r8"">3020419</Frequency><Timestamp dt:dt=""r8"">26919442703</Timestamp><Current dt:dt=""r8"">0</Current><DateUtc dt:dt=""string"">2018-10-30T22:34:47Z</DateUtc></FrequencyChange></FrequencyChanges></Clock>\n"	000_R01_VB_allProc-37-1	60.023	1.0.0.185	1	1150214588	Professional	2.0.10.356	2.0.10.356	10-30-2018	n/a	18:34:47	2.0.10.252	5	0	0	931882	19	931882	3998	-999999	1113331	-3	1091822	0	Run1Proc	5	1	5	RunList	1	HighLargeED	8000	0	953873	0	953873	-1	953873	0	A1HighLargeEDBlockProc	1.0	1.0	1.0	n/a	n/a	n/a	n/a	n/a	n/a	n/a	n/a	n/a	n/a	n/a	n/a	Run1BlockList	6	6.0	1.0	6.0	n/a	n/a	n/a	n/a	n/a	n/a	n/a	n/a	n/a	n/a	n/a	n/a	n/a	n/a	n/a	n/a	n/a	n/a	n/a	n/a	n/a	n/a	n/a	n/a	n/a	n/a	n/a	n/a	n/a	n/a	n/a	n/a	n/a	n/a	n/a	n/a	n/a	n/a	n/a	n/a	n/a	n/a	n/a	n/a	n/a	n/a	n/a	n/a	n/a	n/a	n/a	n/a	n/a	n/a	n/a	n/a	n/a	n/a	n/a	n/a	n/a	n/a	n/a	n/a	n/a	n/a	n/a	n/a	n/a	n/a	n/a	n/a	n/a	n/a	n/a	n/a	n/a	n/a	n/a	n/a	n/a	n/a	n/a	n/a	n/a	n/a	n/a	A1_06.jpg	500	0	953374	0	953374	0	TrialProc1	A1HighLargeEDBlockList	2500	1	950875	1	950875	-1	950874	2500	d	1869	952743	18.994
30	2.5	000_R01_VB_allProc	37	1	"<?xml version=""1.0""?>\n<Clock xmlns:dt=""urn:schemas-microsoft-com:datatypes""><Description dt:dt=""string"">E-Prime Primary Realtime Clock</Description><StartTime><Timestamp dt:dt=""int"">0</Timestamp><DateUtc dt:dt=""string"">2018-10-30T22:34:47Z</DateUtc></StartTime><FrequencyChanges><FrequencyChange><Frequency dt:dt=""r8"">3020419</Frequency><Timestamp dt:dt=""r8"">26919442703</Timestamp><Current dt:dt=""r8"">0</Current><DateUtc dt:dt=""string"">2018-10-30T22:34:47Z</DateUtc></FrequencyChange></FrequencyChanges></Clock>\n"	000_R01_VB_allProc-37-1	60.023	1.0.0.185	1	1150214588	Professional	2.0.10.356	2.0.10.356	10-30-2018	n/a	18:34:47	2.0.10.252	5	0	0	931882	19	931882	3998	-999999	1113331	-3	1091822	0	Run1Proc	5	1	5	RunList	2	OfficeSmall	8000	0	979864	0	979864	0	979864	0	F1OfficeSmallBlockProc	2.0	1.0	2.0	n/a	n/a	n/a	n/a	n/a	n/a	n/a	n/a	n/a	n/a	n/a	n/a	Run1BlockList	1	n/a	n/a	n/a	n/a	n/a	n/a	n/a	n/a	n/a	n/a	n/a	n/a	n/a	n/a	n/a	n/a	n/a	n/a	n/a	n/a	n/a	n/a	n/a	n/a	n/a	n/a	n/a	n/a	n/a	n/a	n/a	n/a	n/a	n/a	n/a	n/a	n/a	n/a	n/a	n/a	n/a	n/a	n/a	n/a	n/a	n/a	n/a	n/a	n/a	n/a	n/a	n/a	n/a	n/a	n/a	n/a	n/a	n/a	n/a	n/a	n/a	n/a	n/a	n/a	n/a	n/a	n/a	n/a	n/a	n/a	n/a	n/a	n/a	n/a	n/a	1.0	1.0	1.0	n/a	n/a	n/a	n/a	n/a	n/a	n/a	n/a	n/a	n/a	n/a	n/a	F1_01.jpg	500	1	964370	-1	964369	0	TrialProc1	F1OfficeSmallBlockList	2500	0	961870	0	961870	-3	961870	2499	d	1793	963663	29.99
33	2.5	000_R01_VB_allProc	37	1	"<?xml version=""1.0""?>\n<Clock xmlns:dt=""urn:schemas-microsoft-com:datatypes""><Description dt:dt=""string"">E-Prime Primary Realtime Clock</Description><StartTime><Timestamp dt:dt=""int"">0</Timestamp><DateUtc dt:dt=""string"">2018-10-30T22:34:47Z</DateUtc></StartTime><FrequencyChanges><FrequencyChange><Frequency dt:dt=""r8"">3020419</Frequency><Timestamp dt:dt=""r8"">26919442703</Timestamp><Current dt:dt=""r8"">0</Current><DateUtc dt:dt=""string"">2018-10-30T22:34:47Z</DateUtc></FrequencyChange></FrequencyChanges></Clock>\n"	000_R01_VB_allProc-37-1	60.023	1.0.0.185	1	1150214588	Professional	2.0.10.356	2.0.10.356	10-30-2018	n/a	18:34:47	2.0.10.252	5	0	0	931882	19	931882	3998	-999999	1113331	-3	1091822	0	Run1Proc	5	1	5	RunList	2	OfficeSmall	8000	0	979864	0	979864	0	979864	0	F1OfficeSmallBlockProc	2.0	1.0	2.0	n/a	n/a	n/a	n/a	n/a	n/a	n/a	n/a	n/a	n/a	n/a	n/a	Run1BlockList	2	n/a	n/a	n/a	n/a	n/a	n/a	n/a	n/a	n/a	n/a	n/a	n/a	n/a	n/a	n/a	n/a	n/a	n/a	n/a	n/a	n/a	n/a	n/a	n/a	n/a	n/a	n/a	n/a	n/a	n/a	n/a	n/a	n/a	n/a	n/a	n/a	n/a	n/a	n/a	n/a	n/a	n/a	n/a	n/a	n/a	n/a	n/a	n/a	n/a	n/a	n/a	n/a	n/a	n/a	n/a	n/a	n/a	n/a	n/a	n/a	n/a	n/a	n/a	n/a	n/a	n/a	n/a	n/a	n/a	n/a	n/a	n/a	n/a	n/a	n/a	2.0	1.0	2.0	n/a	n/a	n/a	n/a	n/a	n/a	n/a	n/a	n/a	n/a	n/a	n/a	F1_02.jpg	500	0	967368	-1	967368	0	TrialProc1	F1OfficeSmallBlockList	2500	0	964869	0	964869	0	964869	2499	d	1146	966015	32.989000000000004
36	2.5	000_R01_VB_allProc	37	1	"<?xml version=""1.0""?>\n<Clock xmlns:dt=""urn:schemas-microsoft-com:datatypes""><Description dt:dt=""string"">E-Prime Primary Realtime Clock</Description><StartTime><Timestamp dt:dt=""int"">0</Timestamp><DateUtc dt:dt=""string"">2018-10-30T22:34:47Z</DateUtc></StartTime><FrequencyChanges><FrequencyChange><Frequency dt:dt=""r8"">3020419</Frequency><Timestamp dt:dt=""r8"">26919442703</Timestamp><Current dt:dt=""r8"">0</Current><DateUtc dt:dt=""string"">2018-10-30T22:34:47Z</DateUtc></FrequencyChange></FrequencyChanges></Clock>\n"	000_R01_VB_allProc-37-1	60.023	1.0.0.185	1	1150214588	Professional	2.0.10.356	2.0.10.356	10-30-2018	n/a	18:34:47	2.0.10.252	5	0	0	931882	19	931882	3998	-999999	1113331	-3	1091822	0	Run1Proc	5	1	5	RunList	2	OfficeSmall	8000	0	979864	0	979864	0	979864	0	F1OfficeSmallBlockProc	2.0	1.0	2.0	n/a	n/a	n/a	n/a	n/a	n/a	n/a	n/a	n/a	n/a	n/a	n/a	Run1BlockList	3	n/a	n/a	n/a	n/a	n/a	n/a	n/a	n/a	n/a	n/a	n/a	n/a	n/a	n/a	n/a	n/a	n/a	n/a	n/a	n/a	n/a	n/a	n/a	n/a	n/a	n/a	n/a	n/a	n/a	n/a	n/a	n/a	n/a	n/a	n/a	n/a	n/a	n/a	n/a	n/a	n/a	n/a	n/a	n/a	n/a	n/a	n/a	n/a	n/a	n/a	n/a	n/a	n/a	n/a	n/a	n/a	n/a	n/a	n/a	n/a	n/a	n/a	n/a	n/a	n/a	n/a	n/a	n/a	n/a	n/a	n/a	n/a	n/a	n/a	n/a	3.0	1.0	3.0	n/a	n/a	n/a	n/a	n/a	n/a	n/a	n/a	n/a	n/a	n/a	n/a	F1_03.jpg	500	0	970367	-1	970367	0	TrialProc1	F1OfficeSmallBlockList	2500	0	967868	0	967868	0	967868	2499	d	915	968783	35.988
39	2.5	000_R01_VB_allProc	37	1	"<?xml version=""1.0""?>\n<Clock xmlns:dt=""urn:schemas-microsoft-com:datatypes""><Description dt:dt=""string"">E-Prime Primary Realtime Clock</Description><StartTime><Timestamp dt:dt=""int"">0</Timestamp><DateUtc dt:dt=""string"">2018-10-30T22:34:47Z</DateUtc></StartTime><FrequencyChanges><FrequencyChange><Frequency dt:dt=""r8"">3020419</Frequency><Timestamp dt:dt=""r8"">26919442703</Timestamp><Current dt:dt=""r8"">0</Current><DateUtc dt:dt=""string"">2018-10-30T22:34:47Z</DateUtc></FrequencyChange></FrequencyChanges></Clock>\n"	000_R01_VB_allProc-37-1	60.023	1.0.0.185	1	1150214588	Professional	2.0.10.356	2.0.10.356	10-30-2018	n/a	18:34:47	2.0.10.252	5	0	0	931882	19	931882	3998	-999999	1113331	-3	1091822	0	Run1Proc	5	1	5	RunList	2	OfficeSmall	8000	0	979864	0	979864	0	979864	0	F1OfficeSmallBlockProc	2.0	1.0	2.0	n/a	n/a	n/a	n/a	n/a	n/a	n/a	n/a	n/a	n/a	n/a	n/a	Run1BlockList	4	n/a	n/a	n/a	n/a	n/a	n/a	n/a	n/a	n/a	n/a	n/a	n/a	n/a	n/a	n/a	n/a	n/a	n/a	n/a	n/a	n/a	n/a	n/a	n/a	n/a	n/a	n/a	n/a	n/a	n/a	n/a	n/a	n/a	n/a	n/a	n/a	n/a	n/a	n/a	n/a	n/a	n/a	n/a	n/a	n/a	n/a	n/a	n/a	n/a	n/a	n/a	n/a	n/a	n/a	n/a	n/a	n/a	n/a	n/a	n/a	n/a	n/a	n/a	n/a	n/a	n/a	n/a	n/a	n/a	n/a	n/a	n/a	n/a	n/a	n/a	4.0	1.0	4.0	n/a	n/a	n/a	n/a	n/a	n/a	n/a	n/a	n/a	n/a	n/a	n/a	F1_04.jpg	500	0	973366	-1	973366	0	TrialProc1	F1OfficeSmallBlockList	2500	0	970867	0	970867	0	970867	2499	d	1100	971967	38.987
42	2.5	000_R01_VB_allProc	37	1	"<?xml version=""1.0""?>\n<Clock xmlns:dt=""urn:schemas-microsoft-com:datatypes""><Description dt:dt=""string"">E-Prime Primary Realtime Clock</Description><StartTime><Timestamp dt:dt=""int"">0</Timestamp><DateUtc dt:dt=""string"">2018-10-30T22:34:47Z</DateUtc></StartTime><FrequencyChanges><FrequencyChange><Frequency dt:dt=""r8"">3020419</Frequency><Timestamp dt:dt=""r8"">26919442703</Timestamp><Current dt:dt=""r8"">0</Current><DateUtc dt:dt=""string"">2018-10-30T22:34:47Z</DateUtc></FrequencyChange></FrequencyChanges></Clock>\n"	000_R01_VB_allProc-37-1	60.023	1.0.0.185	1	1150214588	Professional	2.0.10.356	2.0.10.356	10-30-2018	n/a	18:34:47	2.0.10.252	5	0	0	931882	19	931882	3998	-999999	1113331	-3	1091822	0	Run1Proc	5	1	5	RunList	2	OfficeSmall	8000	0	979864	0	979864	0	979864	0	F1OfficeSmallBlockProc	2.0	1.0	2.0	n/a	n/a	n/a	n/a	n/a	n/a	n/a	n/a	n/a	n/a	n/a	n/a	Run1BlockList	5	n/a	n/a	n/a	n/a	n/a	n/a	n/a	n/a	n/a	n/a	n/a	n/a	n/a	n/a	n/a	n/a	n/a	n/a	n/a	n/a	n/a	n/a	n/a	n/a	n/a	n/a	n/a	n/a	n/a	n/a	n/a	n/a	n/a	n/a	n/a	n/a	n/a	n/a	n/a	n/a	n/a	n/a	n/a	n/a	n/a	n/a	n/a	n/a	n/a	n/a	n/a	n/a	n/a	n/a	n/a	n/a	n/a	n/a	n/a	n/a	n/a	n/a	n/a	n/a	n/a	n/a	n/a	n/a	n/a	n/a	n/a	n/a	n/a	n/a	n/a	5.0	1.0	5.0	n/a	n/a	n/a	n/a	n/a	n/a	n/a	n/a	n/a	n/a	n/a	n/a	F1_05.jpg	500	0	976365	-1	976365	0	TrialProc1	F1OfficeSmallBlockList	2500	0	973866	0	973866	0	973866	2499	d	1149	975015	41.986
45	2.5	000_R01_VB_allProc	37	1	"<?xml version=""1.0""?>\n<Clock xmlns:dt=""urn:schemas-microsoft-com:datatypes""><Description dt:dt=""string"">E-Prime Primary Realtime Clock</Description><StartTime><Timestamp dt:dt=""int"">0</Timestamp><DateUtc dt:dt=""string"">2018-10-30T22:34:47Z</DateUtc></StartTime><FrequencyChanges><FrequencyChange><Frequency dt:dt=""r8"">3020419</Frequency><Timestamp dt:dt=""r8"">26919442703</Timestamp><Current dt:dt=""r8"">0</Current><DateUtc dt:dt=""string"">2018-10-30T22:34:47Z</DateUtc></FrequencyChange></FrequencyChanges></Clock>\n"	000_R01_VB_allProc-37-1	60.023	1.0.0.185	1	1150214588	Professional	2.0.10.356	2.0.10.356	10-30-2018	n/a	18:34:47	2.0.10.252	5	0	0	931882	19	931882	3998	-999999	1113331	-3	1091822	0	Run1Proc	5	1	5	RunList	2	OfficeSmall	8000	0	979864	0	979864	0	979864	0	F1OfficeSmallBlockProc	2.0	1.0	2.0	n/a	n/a	n/a	n/a	n/a	n/a	n/a	n/a	n/a	n/a	n/a	n/a	Run1BlockList	6	n/a	n/a	n/a	n/a	n/a	n/a	n/a	n/a	n/a	n/a	n/a	n/a	n/a	n/a	n/a	n/a	n/a	n/a	n/a	n/a	n/a	n/a	n/a	n/a	n/a	n/a	n/a	n/a	n/a	n/a	n/a	n/a	n/a	n/a	n/a	n/a	n/a	n/a	n/a	n/a	n/a	n/a	n/a	n/a	n/a	n/a	n/a	n/a	n/a	n/a	n/a	n/a	n/a	n/a	n/a	n/a	n/a	n/a	n/a	n/a	n/a	n/a	n/a	n/a	n/a	n/a	n/a	n/a	n/a	n/a	n/a	n/a	n/a	n/a	n/a	6.0	1.0	6.0	n/a	n/a	n/a	n/a	n/a	n/a	n/a	n/a	n/a	n/a	n/a	n/a	F1_06.jpg	500	0	979364	-1	979364	0	TrialProc1	F1OfficeSmallBlockList	2500	0	976865	0	976865	0	976865	2499	d	1181	978046	44.985
56	2.5	000_R01_VB_allProc	37	1	"<?xml version=""1.0""?>\n<Clock xmlns:dt=""urn:schemas-microsoft-com:datatypes""><Description dt:dt=""string"">E-Prime Primary Realtime Clock</Description><StartTime><Timestamp dt:dt=""int"">0</Timestamp><DateUtc dt:dt=""string"">2018-10-30T22:34:47Z</DateUtc></StartTime><FrequencyChanges><FrequencyChange><Frequency dt:dt=""r8"">3020419</Frequency><Timestamp dt:dt=""r8"">26919442703</Timestamp><Current dt:dt=""r8"">0</Current><DateUtc dt:dt=""string"">2018-10-30T22:34:47Z</DateUtc></FrequencyChange></FrequencyChanges></Clock>\n"	000_R01_VB_allProc-37-1	60.023	1.0.0.185	1	1150214588	Professional	2.0.10.356	2.0.10.356	10-30-2018	n/a	18:34:47	2.0.10.252	5	0	0	931882	19	931882	3998	-999999	1113331	-3	1091822	0	Run1Proc	5	1	5	RunList	3	LowLargeED	8000	0	1005854	0	1005854	0	1005854	0	C1LowLargeEDBlockProc	3.0	1.0	3.0	n/a	n/a	n/a	n/a	n/a	n/a	n/a	n/a	n/a	n/a	n/a	n/a	Run1BlockList	1	n/a	n/a	n/a	n/a	n/a	n/a	n/a	n/a	n/a	n/a	n/a	n/a	n/a	n/a	n/a	n/a	n/a	n/a	n/a	n/a	n/a	n/a	n/a	n/a	n/a	n/a	n/a	n/a	n/a	n/a	1.0	1.0	1.0	n/a	n/a	n/a	n/a	n/a	n/a	n/a	n/a	n/a	n/a	n/a	n/a	n/a	n/a	n/a	n/a	n/a	n/a	n/a	n/a	n/a	n/a	n/a	n/a	n/a	n/a	n/a	n/a	n/a	n/a	n/a	n/a	n/a	n/a	n/a	n/a	n/a	n/a	n/a	n/a	n/a	n/a	n/a	n/a	n/a	n/a	n/a	n/a	n/a	n/a	n/a	n/a	n/a	n/a	n/a	n/a	n/a	C1_01.jpg	500	0	990360	-1	990360	0	TrialProc1	C1LowLargeEDBlockList	2500	0	987861	0	987861	-3	987861	2499	c	1601	989462	55.981
59	2.5	000_R01_VB_allProc	37	1	"<?xml version=""1.0""?>\n<Clock xmlns:dt=""urn:schemas-microsoft-com:datatypes""><Description dt:dt=""string"">E-Prime Primary Realtime Clock</Description><StartTime><Timestamp dt:dt=""int"">0</Timestamp><DateUtc dt:dt=""string"">2018-10-30T22:34:47Z</DateUtc></StartTime><FrequencyChanges><FrequencyChange><Frequency dt:dt=""r8"">3020419</Frequency><Timestamp dt:dt=""r8"">26919442703</Timestamp><Current dt:dt=""r8"">0</Current><DateUtc dt:dt=""string"">2018-10-30T22:34:47Z</DateUtc></FrequencyChange></FrequencyChanges></Clock>\n"	000_R01_VB_allProc-37-1	60.023	1.0.0.185	1	1150214588	Professional	2.0.10.356	2.0.10.356	10-30-2018	n/a	18:34:47	2.0.10.252	5	0	0	931882	19	931882	3998	-999999	1113331	-3	1091822	0	Run1Proc	5	1	5	RunList	3	LowLargeED	8000	0	1005854	0	1005854	0	1005854	0	C1LowLargeEDBlockProc	3.0	1.0	3.0	n/a	n/a	n/a	n/a	n/a	n/a	n/a	n/a	n/a	n/a	n/a	n/a	Run1BlockList	2	n/a	n/a	n/a	n/a	n/a	n/a	n/a	n/a	n/a	n/a	n/a	n/a	n/a	n/a	n/a	n/a	n/a	n/a	n/a	n/a	n/a	n/a	n/a	n/a	n/a	n/a	n/a	n/a	n/a	n/a	2.0	1.0	2.0	n/a	n/a	n/a	n/a	n/a	n/a	n/a	n/a	n/a	n/a	n/a	n/a	n/a	n/a	n/a	n/a	n/a	n/a	n/a	n/a	n/a	n/a	n/a	n/a	n/a	n/a	n/a	n/a	n/a	n/a	n/a	n/a	n/a	n/a	n/a	n/a	n/a	n/a	n/a	n/a	n/a	n/a	n/a	n/a	n/a	n/a	n/a	n/a	n/a	n/a	n/a	n/a	n/a	n/a	n/a	n/a	n/a	C1_02.jpg	500	0	993359	0	993359	0	TrialProc1	C1LowLargeEDBlockList	2500	1	990860	1	990860	-1	990859	2500	n/a	0	0	58.979
62	2.5	000_R01_VB_allProc	37	1	"<?xml version=""1.0""?>\n<Clock xmlns:dt=""urn:schemas-microsoft-com:datatypes""><Description dt:dt=""string"">E-Prime Primary Realtime Clock</Description><StartTime><Timestamp dt:dt=""int"">0</Timestamp><DateUtc dt:dt=""string"">2018-10-30T22:34:47Z</DateUtc></StartTime><FrequencyChanges><FrequencyChange><Frequency dt:dt=""r8"">3020419</Frequency><Timestamp dt:dt=""r8"">26919442703</Timestamp><Current dt:dt=""r8"">0</Current><DateUtc dt:dt=""string"">2018-10-30T22:34:47Z</DateUtc></FrequencyChange></FrequencyChanges></Clock>\n"	000_R01_VB_allProc-37-1	60.023	1.0.0.185	1	1150214588	Professional	2.0.10.356	2.0.10.356	10-30-2018	n/a	18:34:47	2.0.10.252	5	0	0	931882	19	931882	3998	-999999	1113331	-3	1091822	0	Run1Proc	5	1	5	RunList	3	LowLargeED	8000	0	1005854	0	1005854	0	1005854	0	C1LowLargeEDBlockProc	3.0	1.0	3.0	n/a	n/a	n/a	n/a	n/a	n/a	n/a	n/a	n/a	n/a	n/a	n/a	Run1BlockList	3	n/a	n/a	n/a	n/a	n/a	n/a	n/a	n/a	n/a	n/a	n/a	n/a	n/a	n/a	n/a	n/a	n/a	n/a	n/a	n/a	n/a	n/a	n/a	n/a	n/a	n/a	n/a	n/a	n/a	n/a	3.0	1.0	3.0	n/a	n/a	n/a	n/a	n/a	n/a	n/a	n/a	n/a	n/a	n/a	n/a	n/a	n/a	n/a	n/a	n/a	n/a	n/a	n/a	n/a	n/a	n/a	n/a	n/a	n/a	n/a	n/a	n/a	n/a	n/a	n/a	n/a	n/a	n/a	n/a	n/a	n/a	n/a	n/a	n/a	n/a	n/a	n/a	n/a	n/a	n/a	n/a	n/a	n/a	n/a	n/a	n/a	n/a	n/a	n/a	n/a	C1_03.jpg	500	0	996357	-1	996357	0	TrialProc1	C1LowLargeEDBlockList	2500	0	993858	0	993858	-1	993858	2499	c	1124	994982	61.978
65	2.5	000_R01_VB_allProc	37	1	"<?xml version=""1.0""?>\n<Clock xmlns:dt=""urn:schemas-microsoft-com:datatypes""><Description dt:dt=""string"">E-Prime Primary Realtime Clock</Description><StartTime><Timestamp dt:dt=""int"">0</Timestamp><DateUtc dt:dt=""string"">2018-10-30T22:34:47Z</DateUtc></StartTime><FrequencyChanges><FrequencyChange><Frequency dt:dt=""r8"">3020419</Frequency><Timestamp dt:dt=""r8"">26919442703</Timestamp><Current dt:dt=""r8"">0</Current><DateUtc dt:dt=""string"">2018-10-30T22:34:47Z</DateUtc></FrequencyChange></FrequencyChanges></Clock>\n"	000_R01_VB_allProc-37-1	60.023	1.0.0.185	1	1150214588	Professional	2.0.10.356	2.0.10.356	10-30-2018	n/a	18:34:47	2.0.10.252	5	0	0	931882	19	931882	3998	-999999	1113331	-3	1091822	0	Run1Proc	5	1	5	RunList	3	LowLargeED	8000	0	1005854	0	1005854	0	1005854	0	C1LowLargeEDBlockProc	3.0	1.0	3.0	n/a	n/a	n/a	n/a	n/a	n/a	n/a	n/a	n/a	n/a	n/a	n/a	Run1BlockList	4	n/a	n/a	n/a	n/a	n/a	n/a	n/a	n/a	n/a	n/a	n/a	n/a	n/a	n/a	n/a	n/a	n/a	n/a	n/a	n/a	n/a	n/a	n/a	n/a	n/a	n/a	n/a	n/a	n/a	n/a	4.0	1.0	4.0	n/a	n/a	n/a	n/a	n/a	n/a	n/a	n/a	n/a	n/a	n/a	n/a	n/a	n/a	n/a	n/a	n/a	n/a	n/a	n/a	n/a	n/a	n/a	n/a	n/a	n/a	n/a	n/a	n/a	n/a	n/a	n/a	n/a	n/a	n/a	n/a	n/a	n/a	n/a	n/a	n/a	n/a	n/a	n/a	n/a	n/a	n/a	n/a	n/a	n/a	n/a	n/a	n/a	n/a	n/a	n/a	n/a	C1_04.jpg	500	0	999356	-1	999356	0	TrialProc1	C1LowLargeEDBlockList	2500	0	996857	0	996857	0	996857	2499	c	1373	998230	64.977
68	2.5	000_R01_VB_allProc	37	1	"<?xml version=""1.0""?>\n<Clock xmlns:dt=""urn:schemas-microsoft-com:datatypes""><Description dt:dt=""string"">E-Prime Primary Realtime Clock</Description><StartTime><Timestamp dt:dt=""int"">0</Timestamp><DateUtc dt:dt=""string"">2018-10-30T22:34:47Z</DateUtc></StartTime><FrequencyChanges><FrequencyChange><Frequency dt:dt=""r8"">3020419</Frequency><Timestamp dt:dt=""r8"">26919442703</Timestamp><Current dt:dt=""r8"">0</Current><DateUtc dt:dt=""string"">2018-10-30T22:34:47Z</DateUtc></FrequencyChange></FrequencyChanges></Clock>\n"	000_R01_VB_allProc-37-1	60.023	1.0.0.185	1	1150214588	Professional	2.0.10.356	2.0.10.356	10-30-2018	n/a	18:34:47	2.0.10.252	5	0	0	931882	19	931882	3998	-999999	1113331	-3	1091822	0	Run1Proc	5	1	5	RunList	3	LowLargeED	8000	0	1005854	0	1005854	0	1005854	0	C1LowLargeEDBlockProc	3.0	1.0	3.0	n/a	n/a	n/a	n/a	n/a	n/a	n/a	n/a	n/a	n/a	n/a	n/a	Run1BlockList	5	n/a	n/a	n/a	n/a	n/a	n/a	n/a	n/a	n/a	n/a	n/a	n/a	n/a	n/a	n/a	n/a	n/a	n/a	n/a	n/a	n/a	n/a	n/a	n/a	n/a	n/a	n/a	n/a	n/a	n/a	5.0	1.0	5.0	n/a	n/a	n/a	n/a	n/a	n/a	n/a	n/a	n/a	n/a	n/a	n/a	n/a	n/a	n/a	n/a	n/a	n/a	n/a	n/a	n/a	n/a	n/a	n/a	n/a	n/a	n/a	n/a	n/a	n/a	n/a	n/a	n/a	n/a	n/a	n/a	n/a	n/a	n/a	n/a	n/a	n/a	n/a	n/a	n/a	n/a	n/a	n/a	n/a	n/a	n/a	n/a	n/a	n/a	n/a	n/a	n/a	C1_05.jpg	500	0	1002355	-1	1002355	0	TrialProc1	C1LowLargeEDBlockList	2500	0	999856	0	999856	0	999856	2499	c	1118	1000974	67.976
71	2.5	000_R01_VB_allProc	37	1	"<?xml version=""1.0""?>\n<Clock xmlns:dt=""urn:schemas-microsoft-com:datatypes""><Description dt:dt=""string"">E-Prime Primary Realtime Clock</Description><StartTime><Timestamp dt:dt=""int"">0</Timestamp><DateUtc dt:dt=""string"">2018-10-30T22:34:47Z</DateUtc></StartTime><FrequencyChanges><FrequencyChange><Frequency dt:dt=""r8"">3020419</Frequency><Timestamp dt:dt=""r8"">26919442703</Timestamp><Current dt:dt=""r8"">0</Current><DateUtc dt:dt=""string"">2018-10-30T22:34:47Z</DateUtc></FrequencyChange></FrequencyChanges></Clock>\n"	000_R01_VB_allProc-37-1	60.023	1.0.0.185	1	1150214588	Professional	2.0.10.356	2.0.10.356	10-30-2018	n/a	18:34:47	2.0.10.252	5	0	0	931882	19	931882	3998	-999999	1113331	-3	1091822	0	Run1Proc	5	1	5	RunList	3	LowLargeED	8000	0	1005854	0	1005854	0	1005854	0	C1LowLargeEDBlockProc	3.0	1.0	3.0	n/a	n/a	n/a	n/a	n/a	n/a	n/a	n/a	n/a	n/a	n/a	n/a	Run1BlockList	6	n/a	n/a	n/a	n/a	n/a	n/a	n/a	n/a	n/a	n/a	n/a	n/a	n/a	n/a	n/a	n/a	n/a	n/a	n/a	n/a	n/a	n/a	n/a	n/a	n/a	n/a	n/a	n/a	n/a	n/a	6.0	1.0	6.0	n/a	n/a	n/a	n/a	n/a	n/a	n/a	n/a	n/a	n/a	n/a	n/a	n/a	n/a	n/a	n/a	n/a	n/a	n/a	n/a	n/a	n/a	n/a	n/a	n/a	n/a	n/a	n/a	n/a	n/a	n/a	n/a	n/a	n/a	n/a	n/a	n/a	n/a	n/a	n/a	n/a	n/a	n/a	n/a	n/a	n/a	n/a	n/a	n/a	n/a	n/a	n/a	n/a	n/a	n/a	n/a	n/a	C1_06.jpg	500	0	1005354	-1	1005354	0	TrialProc1	C1LowLargeEDBlockList	2500	0	1002855	0	1002855	0	1002855	2499	d	1199	1004054	70.975
82	2.5	000_R01_VB_allProc	37	1	"<?xml version=""1.0""?>\n<Clock xmlns:dt=""urn:schemas-microsoft-com:datatypes""><Description dt:dt=""string"">E-Prime Primary Realtime Clock</Description><StartTime><Timestamp dt:dt=""int"">0</Timestamp><DateUtc dt:dt=""string"">2018-10-30T22:34:47Z</DateUtc></StartTime><FrequencyChanges><FrequencyChange><Frequency dt:dt=""r8"">3020419</Frequency><Timestamp dt:dt=""r8"">26919442703</Timestamp><Current dt:dt=""r8"">0</Current><DateUtc dt:dt=""string"">2018-10-30T22:34:47Z</DateUtc></FrequencyChange></FrequencyChanges></Clock>\n"	000_R01_VB_allProc-37-1	60.023	1.0.0.185	1	1150214588	Professional	2.0.10.356	2.0.10.356	10-30-2018	n/a	18:34:47	2.0.10.252	5	0	0	931882	19	931882	3998	-999999	1113331	-3	1091822	0	Run1Proc	5	1	5	RunList	4	LowSmallED	8000	0	1031844	0	1031844	0	1031844	0	D1LowSmallEDBlockProc	4.0	1.0	4.0	n/a	n/a	n/a	n/a	n/a	n/a	n/a	n/a	n/a	n/a	n/a	n/a	Run1BlockList	1	n/a	n/a	n/a	n/a	n/a	n/a	n/a	n/a	n/a	n/a	n/a	n/a	n/a	n/a	n/a	n/a	n/a	n/a	n/a	n/a	n/a	n/a	n/a	n/a	n/a	n/a	n/a	n/a	n/a	n/a	n/a	n/a	n/a	n/a	n/a	n/a	n/a	n/a	n/a	n/a	n/a	n/a	n/a	n/a	n/a	1.0	1.0	1.0	n/a	n/a	n/a	n/a	n/a	n/a	n/a	n/a	n/a	n/a	n/a	n/a	n/a	n/a	n/a	n/a	n/a	n/a	n/a	n/a	n/a	n/a	n/a	n/a	n/a	n/a	n/a	n/a	n/a	n/a	n/a	n/a	n/a	n/a	n/a	n/a	n/a	n/a	n/a	n/a	n/a	n/a	D1_01.jpg	500	0	1016350	-1	1016350	0	TrialProc1	D1LowSmallEDBlockList	2500	0	1013851	0	1013851	-3	1013851	2499	d	2275	1016126	81.971
85	2.5	000_R01_VB_allProc	37	1	"<?xml version=""1.0""?>\n<Clock xmlns:dt=""urn:schemas-microsoft-com:datatypes""><Description dt:dt=""string"">E-Prime Primary Realtime Clock</Description><StartTime><Timestamp dt:dt=""int"">0</Timestamp><DateUtc dt:dt=""string"">2018-10-30T22:34:47Z</DateUtc></StartTime><FrequencyChanges><FrequencyChange><Frequency dt:dt=""r8"">3020419</Frequency><Timestamp dt:dt=""r8"">26919442703</Timestamp><Current dt:dt=""r8"">0</Current><DateUtc dt:dt=""string"">2018-10-30T22:34:47Z</DateUtc></FrequencyChange></FrequencyChanges></Clock>\n"	000_R01_VB_allProc-37-1	60.023	1.0.0.185	1	1150214588	Professional	2.0.10.356	2.0.10.356	10-30-2018	n/a	18:34:47	2.0.10.252	5	0	0	931882	19	931882	3998	-999999	1113331	-3	1091822	0	Run1Proc	5	1	5	RunList	4	LowSmallED	8000	0	1031844	0	1031844	0	1031844	0	D1LowSmallEDBlockProc	4.0	1.0	4.0	n/a	n/a	n/a	n/a	n/a	n/a	n/a	n/a	n/a	n/a	n/a	n/a	Run1BlockList	2	n/a	n/a	n/a	n/a	n/a	n/a	n/a	n/a	n/a	n/a	n/a	n/a	n/a	n/a	n/a	n/a	n/a	n/a	n/a	n/a	n/a	n/a	n/a	n/a	n/a	n/a	n/a	n/a	n/a	n/a	n/a	n/a	n/a	n/a	n/a	n/a	n/a	n/a	n/a	n/a	n/a	n/a	n/a	n/a	n/a	2.0	1.0	2.0	n/a	n/a	n/a	n/a	n/a	n/a	n/a	n/a	n/a	n/a	n/a	n/a	n/a	n/a	n/a	n/a	n/a	n/a	n/a	n/a	n/a	n/a	n/a	n/a	n/a	n/a	n/a	n/a	n/a	n/a	n/a	n/a	n/a	n/a	n/a	n/a	n/a	n/a	n/a	n/a	n/a	n/a	D1_02.jpg	500	0	1019349	-1	1019349	0	TrialProc1	D1LowSmallEDBlockList	2500	0	1016850	0	1016850	0	1016850	2499	c	1420	1018270	84.97
88	2.5	000_R01_VB_allProc	37	1	"<?xml version=""1.0""?>\n<Clock xmlns:dt=""urn:schemas-microsoft-com:datatypes""><Description dt:dt=""string"">E-Prime Primary Realtime Clock</Description><StartTime><Timestamp dt:dt=""int"">0</Timestamp><DateUtc dt:dt=""string"">2018-10-30T22:34:47Z</DateUtc></StartTime><FrequencyChanges><FrequencyChange><Frequency dt:dt=""r8"">3020419</Frequency><Timestamp dt:dt=""r8"">26919442703</Timestamp><Current dt:dt=""r8"">0</Current><DateUtc dt:dt=""string"">2018-10-30T22:34:47Z</DateUtc></FrequencyChange></FrequencyChanges></Clock>\n"	000_R01_VB_allProc-37-1	60.023	1.0.0.185	1	1150214588	Professional	2.0.10.356	2.0.10.356	10-30-2018	n/a	18:34:47	2.0.10.252	5	0	0	931882	19	931882	3998	-999999	1113331	-3	1091822	0	Run1Proc	5	1	5	RunList	4	LowSmallED	8000	0	1031844	0	1031844	0	1031844	0	D1LowSmallEDBlockProc	4.0	1.0	4.0	n/a	n/a	n/a	n/a	n/a	n/a	n/a	n/a	n/a	n/a	n/a	n/a	Run1BlockList	3	n/a	n/a	n/a	n/a	n/a	n/a	n/a	n/a	n/a	n/a	n/a	n/a	n/a	n/a	n/a	n/a	n/a	n/a	n/a	n/a	n/a	n/a	n/a	n/a	n/a	n/a	n/a	n/a	n/a	n/a	n/a	n/a	n/a	n/a	n/a	n/a	n/a	n/a	n/a	n/a	n/a	n/a	n/a	n/a	n/a	3.0	1.0	3.0	n/a	n/a	n/a	n/a	n/a	n/a	n/a	n/a	n/a	n/a	n/a	n/a	n/a	n/a	n/a	n/a	n/a	n/a	n/a	n/a	n/a	n/a	n/a	n/a	n/a	n/a	n/a	n/a	n/a	n/a	n/a	n/a	n/a	n/a	n/a	n/a	n/a	n/a	n/a	n/a	n/a	n/a	D1_03.jpg	500	0	1022348	-1	1022348	0	TrialProc1	D1LowSmallEDBlockList	2500	0	1019849	0	1019849	0	1019849	2499	d	1373	1021222	87.969
91	2.5	000_R01_VB_allProc	37	1	"<?xml version=""1.0""?>\n<Clock xmlns:dt=""urn:schemas-microsoft-com:datatypes""><Description dt:dt=""string"">E-Prime Primary Realtime Clock</Description><StartTime><Timestamp dt:dt=""int"">0</Timestamp><DateUtc dt:dt=""string"">2018-10-30T22:34:47Z</DateUtc></StartTime><FrequencyChanges><FrequencyChange><Frequency dt:dt=""r8"">3020419</Frequency><Timestamp dt:dt=""r8"">26919442703</Timestamp><Current dt:dt=""r8"">0</Current><DateUtc dt:dt=""string"">2018-10-30T22:34:47Z</DateUtc></FrequencyChange></FrequencyChanges></Clock>\n"	000_R01_VB_allProc-37-1	60.023	1.0.0.185	1	1150214588	Professional	2.0.10.356	2.0.10.356	10-30-2018	n/a	18:34:47	2.0.10.252	5	0	0	931882	19	931882	3998	-999999	1113331	-3	1091822	0	Run1Proc	5	1	5	RunList	4	LowSmallED	8000	0	1031844	0	1031844	0	1031844	0	D1LowSmallEDBlockProc	4.0	1.0	4.0	n/a	n/a	n/a	n/a	n/a	n/a	n/a	n/a	n/a	n/a	n/a	n/a	Run1BlockList	4	n/a	n/a	n/a	n/a	n/a	n/a	n/a	n/a	n/a	n/a	n/a	n/a	n/a	n/a	n/a	n/a	n/a	n/a	n/a	n/a	n/a	n/a	n/a	n/a	n/a	n/a	n/a	n/a	n/a	n/a	n/a	n/a	n/a	n/a	n/a	n/a	n/a	n/a	n/a	n/a	n/a	n/a	n/a	n/a	n/a	4.0	1.0	4.0	n/a	n/a	n/a	n/a	n/a	n/a	n/a	n/a	n/a	n/a	n/a	n/a	n/a	n/a	n/a	n/a	n/a	n/a	n/a	n/a	n/a	n/a	n/a	n/a	n/a	n/a	n/a	n/a	n/a	n/a	n/a	n/a	n/a	n/a	n/a	n/a	n/a	n/a	n/a	n/a	n/a	n/a	D1_04.jpg	500	0	1025347	0	1025347	0	TrialProc1	D1LowSmallEDBlockList	2500	1	1022848	1	1022848	-1	1022847	2500	d	1758	1024605	90.967
94	2.5	000_R01_VB_allProc	37	1	"<?xml version=""1.0""?>\n<Clock xmlns:dt=""urn:schemas-microsoft-com:datatypes""><Description dt:dt=""string"">E-Prime Primary Realtime Clock</Description><StartTime><Timestamp dt:dt=""int"">0</Timestamp><DateUtc dt:dt=""string"">2018-10-30T22:34:47Z</DateUtc></StartTime><FrequencyChanges><FrequencyChange><Frequency dt:dt=""r8"">3020419</Frequency><Timestamp dt:dt=""r8"">26919442703</Timestamp><Current dt:dt=""r8"">0</Current><DateUtc dt:dt=""string"">2018-10-30T22:34:47Z</DateUtc></FrequencyChange></FrequencyChanges></Clock>\n"	000_R01_VB_allProc-37-1	60.023	1.0.0.185	1	1150214588	Professional	2.0.10.356	2.0.10.356	10-30-2018	n/a	18:34:47	2.0.10.252	5	0	0	931882	19	931882	3998	-999999	1113331	-3	1091822	0	Run1Proc	5	1	5	RunList	4	LowSmallED	8000	0	1031844	0	1031844	0	1031844	0	D1LowSmallEDBlockProc	4.0	1.0	4.0	n/a	n/a	n/a	n/a	n/a	n/a	n/a	n/a	n/a	n/a	n/a	n/a	Run1BlockList	5	n/a	n/a	n/a	n/a	n/a	n/a	n/a	n/a	n/a	n/a	n/a	n/a	n/a	n/a	n/a	n/a	n/a	n/a	n/a	n/a	n/a	n/a	n/a	n/a	n/a	n/a	n/a	n/a	n/a	n/a	n/a	n/a	n/a	n/a	n/a	n/a	n/a	n/a	n/a	n/a	n/a	n/a	n/a	n/a	n/a	5.0	1.0	5.0	n/a	n/a	n/a	n/a	n/a	n/a	n/a	n/a	n/a	n/a	n/a	n/a	n/a	n/a	n/a	n/a	n/a	n/a	n/a	n/a	n/a	n/a	n/a	n/a	n/a	n/a	n/a	n/a	n/a	n/a	n/a	n/a	n/a	n/a	n/a	n/a	n/a	n/a	n/a	n/a	n/a	n/a	D1_05.jpg	500	0	1028345	-1	1028345	0	TrialProc1	D1LowSmallEDBlockList	2500	0	1025846	0	1025846	-1	1025846	2499	d	847	1026693	93.966
97	2.5	000_R01_VB_allProc	37	1	"<?xml version=""1.0""?>\n<Clock xmlns:dt=""urn:schemas-microsoft-com:datatypes""><Description dt:dt=""string"">E-Prime Primary Realtime Clock</Description><StartTime><Timestamp dt:dt=""int"">0</Timestamp><DateUtc dt:dt=""string"">2018-10-30T22:34:47Z</DateUtc></StartTime><FrequencyChanges><FrequencyChange><Frequency dt:dt=""r8"">3020419</Frequency><Timestamp dt:dt=""r8"">26919442703</Timestamp><Current dt:dt=""r8"">0</Current><DateUtc dt:dt=""string"">2018-10-30T22:34:47Z</DateUtc></FrequencyChange></FrequencyChanges></Clock>\n"	000_R01_VB_allProc-37-1	60.023	1.0.0.185	1	1150214588	Professional	2.0.10.356	2.0.10.356	10-30-2018	n/a	18:34:47	2.0.10.252	5	0	0	931882	19	931882	3998	-999999	1113331	-3	1091822	0	Run1Proc	5	1	5	RunList	4	LowSmallED	8000	0	1031844	0	1031844	0	1031844	0	D1LowSmallEDBlockProc	4.0	1.0	4.0	n/a	n/a	n/a	n/a	n/a	n/a	n/a	n/a	n/a	n/a	n/a	n/a	Run1BlockList	6	n/a	n/a	n/a	n/a	n/a	n/a	n/a	n/a	n/a	n/a	n/a	n/a	n/a	n/a	n/a	n/a	n/a	n/a	n/a	n/a	n/a	n/a	n/a	n/a	n/a	n/a	n/a	n/a	n/a	n/a	n/a	n/a	n/a	n/a	n/a	n/a	n/a	n/a	n/a	n/a	n/a	n/a	n/a	n/a	n/a	6.0	1.0	6.0	n/a	n/a	n/a	n/a	n/a	n/a	n/a	n/a	n/a	n/a	n/a	n/a	n/a	n/a	n/a	n/a	n/a	n/a	n/a	n/a	n/a	n/a	n/a	n/a	n/a	n/a	n/a	n/a	n/a	n/a	n/a	n/a	n/a	n/a	n/a	n/a	n/a	n/a	n/a	n/a	n/a	n/a	D1_06.jpg	500	0	1031344	-1	1031344	0	TrialProc1	D1LowSmallEDBlockList	2500	0	1028845	0	1028845	0	1028845	2499	c	2232	1031077	96.965
108	2.5	000_R01_VB_allProc	37	1	"<?xml version=""1.0""?>\n<Clock xmlns:dt=""urn:schemas-microsoft-com:datatypes""><Description dt:dt=""string"">E-Prime Primary Realtime Clock</Description><StartTime><Timestamp dt:dt=""int"">0</Timestamp><DateUtc dt:dt=""string"">2018-10-30T22:34:47Z</DateUtc></StartTime><FrequencyChanges><FrequencyChange><Frequency dt:dt=""r8"">3020419</Frequency><Timestamp dt:dt=""r8"">26919442703</Timestamp><Current dt:dt=""r8"">0</Current><DateUtc dt:dt=""string"">2018-10-30T22:34:47Z</DateUtc></FrequencyChange></FrequencyChanges></Clock>\n"	000_R01_VB_allProc-37-1	60.023	1.0.0.185	1	1150214588	Professional	2.0.10.356	2.0.10.356	10-30-2018	n/a	18:34:47	2.0.10.252	5	0	0	931882	19	931882	3998	-999999	1113331	-3	1091822	0	Run1Proc	5	1	5	RunList	5	OfficeLarge	8000	1	1057835	1	1057835	-1	1057834	0	E1OfficeLargeBlockProc	5.0	1.0	5.0	n/a	n/a	n/a	n/a	n/a	n/a	n/a	n/a	n/a	n/a	n/a	n/a	Run1BlockList	1	n/a	n/a	n/a	n/a	n/a	n/a	n/a	n/a	n/a	n/a	n/a	n/a	n/a	n/a	n/a	n/a	n/a	n/a	n/a	n/a	n/a	n/a	n/a	n/a	n/a	n/a	n/a	n/a	n/a	n/a	n/a	n/a	n/a	n/a	n/a	n/a	n/a	n/a	n/a	n/a	n/a	n/a	n/a	n/a	n/a	n/a	n/a	n/a	n/a	n/a	n/a	n/a	n/a	n/a	n/a	n/a	n/a	n/a	n/a	n/a	1.0	1.0	1.0	n/a	n/a	n/a	n/a	n/a	n/a	n/a	n/a	n/a	n/a	n/a	n/a	n/a	n/a	n/a	n/a	n/a	n/a	n/a	n/a	n/a	n/a	n/a	n/a	n/a	n/a	n/a	E1_01.jpg	500	0	1042340	-1	1042340	0	TrialProc1	E1OfficeLargeBlockList	2500	0	1039841	0	1039841	-3	1039841	2499	d	1548	1041389	107.961
111	2.5	000_R01_VB_allProc	37	1	"<?xml version=""1.0""?>\n<Clock xmlns:dt=""urn:schemas-microsoft-com:datatypes""><Description dt:dt=""string"">E-Prime Primary Realtime Clock</Description><StartTime><Timestamp dt:dt=""int"">0</Timestamp><DateUtc dt:dt=""string"">2018-10-30T22:34:47Z</DateUtc></StartTime><FrequencyChanges><FrequencyChange><Frequency dt:dt=""r8"">3020419</Frequency><Timestamp dt:dt=""r8"">26919442703</Timestamp><Current dt:dt=""r8"">0</Current><DateUtc dt:dt=""string"">2018-10-30T22:34:47Z</DateUtc></FrequencyChange></FrequencyChanges></Clock>\n"	000_R01_VB_allProc-37-1	60.023	1.0.0.185	1	1150214588	Professional	2.0.10.356	2.0.10.356	10-30-2018	n/a	18:34:47	2.0.10.252	5	0	0	931882	19	931882	3998	-999999	1113331	-3	1091822	0	Run1Proc	5	1	5	RunList	5	OfficeLarge	8000	1	1057835	1	1057835	-1	1057834	0	E1OfficeLargeBlockProc	5.0	1.0	5.0	n/a	n/a	n/a	n/a	n/a	n/a	n/a	n/a	n/a	n/a	n/a	n/a	Run1BlockList	2	n/a	n/a	n/a	n/a	n/a	n/a	n/a	n/a	n/a	n/a	n/a	n/a	n/a	n/a	n/a	n/a	n/a	n/a	n/a	n/a	n/a	n/a	n/a	n/a	n/a	n/a	n/a	n/a	n/a	n/a	n/a	n/a	n/a	n/a	n/a	n/a	n/a	n/a	n/a	n/a	n/a	n/a	n/a	n/a	n/a	n/a	n/a	n/a	n/a	n/a	n/a	n/a	n/a	n/a	n/a	n/a	n/a	n/a	n/a	n/a	2.0	1.0	2.0	n/a	n/a	n/a	n/a	n/a	n/a	n/a	n/a	n/a	n/a	n/a	n/a	n/a	n/a	n/a	n/a	n/a	n/a	n/a	n/a	n/a	n/a	n/a	n/a	n/a	n/a	n/a	E1_02.jpg	500	0	1045339	-1	1045339	0	TrialProc1	E1OfficeLargeBlockList	2500	0	1042840	0	1042840	0	1042840	2499	c	1589	1044429	110.96
114	2.5	000_R01_VB_allProc	37	1	"<?xml version=""1.0""?>\n<Clock xmlns:dt=""urn:schemas-microsoft-com:datatypes""><Description dt:dt=""string"">E-Prime Primary Realtime Clock</Description><StartTime><Timestamp dt:dt=""int"">0</Timestamp><DateUtc dt:dt=""string"">2018-10-30T22:34:47Z</DateUtc></StartTime><FrequencyChanges><FrequencyChange><Frequency dt:dt=""r8"">3020419</Frequency><Timestamp dt:dt=""r8"">26919442703</Timestamp><Current dt:dt=""r8"">0</Current><DateUtc dt:dt=""string"">2018-10-30T22:34:47Z</DateUtc></FrequencyChange></FrequencyChanges></Clock>\n"	000_R01_VB_allProc-37-1	60.023	1.0.0.185	1	1150214588	Professional	2.0.10.356	2.0.10.356	10-30-2018	n/a	18:34:47	2.0.10.252	5	0	0	931882	19	931882	3998	-999999	1113331	-3	1091822	0	Run1Proc	5	1	5	RunList	5	OfficeLarge	8000	1	1057835	1	1057835	-1	1057834	0	E1OfficeLargeBlockProc	5.0	1.0	5.0	n/a	n/a	n/a	n/a	n/a	n/a	n/a	n/a	n/a	n/a	n/a	n/a	Run1BlockList	3	n/a	n/a	n/a	n/a	n/a	n/a	n/a	n/a	n/a	n/a	n/a	n/a	n/a	n/a	n/a	n/a	n/a	n/a	n/a	n/a	n/a	n/a	n/a	n/a	n/a	n/a	n/a	n/a	n/a	n/a	n/a	n/a	n/a	n/a	n/a	n/a	n/a	n/a	n/a	n/a	n/a	n/a	n/a	n/a	n/a	n/a	n/a	n/a	n/a	n/a	n/a	n/a	n/a	n/a	n/a	n/a	n/a	n/a	n/a	n/a	3.0	1.0	3.0	n/a	n/a	n/a	n/a	n/a	n/a	n/a	n/a	n/a	n/a	n/a	n/a	n/a	n/a	n/a	n/a	n/a	n/a	n/a	n/a	n/a	n/a	n/a	n/a	n/a	n/a	n/a	E1_03.jpg	500	0	1048338	-1	1048338	0	TrialProc1	E1OfficeLargeBlockList	2500	0	1045839	0	1045839	0	1045839	2499	d	1518	1047357	113.959
117	2.5	000_R01_VB_allProc	37	1	"<?xml version=""1.0""?>\n<Clock xmlns:dt=""urn:schemas-microsoft-com:datatypes""><Description dt:dt=""string"">E-Prime Primary Realtime Clock</Description><StartTime><Timestamp dt:dt=""int"">0</Timestamp><DateUtc dt:dt=""string"">2018-10-30T22:34:47Z</DateUtc></StartTime><FrequencyChanges><FrequencyChange><Frequency dt:dt=""r8"">3020419</Frequency><Timestamp dt:dt=""r8"">26919442703</Timestamp><Current dt:dt=""r8"">0</Current><DateUtc dt:dt=""string"">2018-10-30T22:34:47Z</DateUtc></FrequencyChange></FrequencyChanges></Clock>\n"	000_R01_VB_allProc-37-1	60.023	1.0.0.185	1	1150214588	Professional	2.0.10.356	2.0.10.356	10-30-2018	n/a	18:34:47	2.0.10.252	5	0	0	931882	19	931882	3998	-999999	1113331	-3	1091822	0	Run1Proc	5	1	5	RunList	5	OfficeLarge	8000	1	1057835	1	1057835	-1	1057834	0	E1OfficeLargeBlockProc	5.0	1.0	5.0	n/a	n/a	n/a	n/a	n/a	n/a	n/a	n/a	n/a	n/a	n/a	n/a	Run1BlockList	4	n/a	n/a	n/a	n/a	n/a	n/a	n/a	n/a	n/a	n/a	n/a	n/a	n/a	n/a	n/a	n/a	n/a	n/a	n/a	n/a	n/a	n/a	n/a	n/a	n/a	n/a	n/a	n/a	n/a	n/a	n/a	n/a	n/a	n/a	n/a	n/a	n/a	n/a	n/a	n/a	n/a	n/a	n/a	n/a	n/a	n/a	n/a	n/a	n/a	n/a	n/a	n/a	n/a	n/a	n/a	n/a	n/a	n/a	n/a	n/a	4.0	1.0	4.0	n/a	n/a	n/a	n/a	n/a	n/a	n/a	n/a	n/a	n/a	n/a	n/a	n/a	n/a	n/a	n/a	n/a	n/a	n/a	n/a	n/a	n/a	n/a	n/a	n/a	n/a	n/a	E1_04.jpg	500	0	1051337	-1	1051337	0	TrialProc1	E1OfficeLargeBlockList	2500	0	1048838	0	1048838	0	1048838	2499	d	1599	1050437	116.958
120	2.5	000_R01_VB_allProc	37	1	"<?xml version=""1.0""?>\n<Clock xmlns:dt=""urn:schemas-microsoft-com:datatypes""><Description dt:dt=""string"">E-Prime Primary Realtime Clock</Description><StartTime><Timestamp dt:dt=""int"">0</Timestamp><DateUtc dt:dt=""string"">2018-10-30T22:34:47Z</DateUtc></StartTime><FrequencyChanges><FrequencyChange><Frequency dt:dt=""r8"">3020419</Frequency><Timestamp dt:dt=""r8"">26919442703</Timestamp><Current dt:dt=""r8"">0</Current><DateUtc dt:dt=""string"">2018-10-30T22:34:47Z</DateUtc></FrequencyChange></FrequencyChanges></Clock>\n"	000_R01_VB_allProc-37-1	60.023	1.0.0.185	1	1150214588	Professional	2.0.10.356	2.0.10.356	10-30-2018	n/a	18:34:47	2.0.10.252	5	0	0	931882	19	931882	3998	-999999	1113331	-3	1091822	0	Run1Proc	5	1	5	RunList	5	OfficeLarge	8000	1	1057835	1	1057835	-1	1057834	0	E1OfficeLargeBlockProc	5.0	1.0	5.0	n/a	n/a	n/a	n/a	n/a	n/a	n/a	n/a	n/a	n/a	n/a	n/a	Run1BlockList	5	n/a	n/a	n/a	n/a	n/a	n/a	n/a	n/a	n/a	n/a	n/a	n/a	n/a	n/a	n/a	n/a	n/a	n/a	n/a	n/a	n/a	n/a	n/a	n/a	n/a	n/a	n/a	n/a	n/a	n/a	n/a	n/a	n/a	n/a	n/a	n/a	n/a	n/a	n/a	n/a	n/a	n/a	n/a	n/a	n/a	n/a	n/a	n/a	n/a	n/a	n/a	n/a	n/a	n/a	n/a	n/a	n/a	n/a	n/a	n/a	5.0	1.0	5.0	n/a	n/a	n/a	n/a	n/a	n/a	n/a	n/a	n/a	n/a	n/a	n/a	n/a	n/a	n/a	n/a	n/a	n/a	n/a	n/a	n/a	n/a	n/a	n/a	n/a	n/a	n/a	E1_05.jpg	500	0	1054336	-1	1054336	0	TrialProc1	E1OfficeLargeBlockList	2500	0	1051837	0	1051837	0	1051837	2499	c	1472	1053309	119.957
123	2.5	000_R01_VB_allProc	37	1	"<?xml version=""1.0""?>\n<Clock xmlns:dt=""urn:schemas-microsoft-com:datatypes""><Description dt:dt=""string"">E-Prime Primary Realtime Clock</Description><StartTime><Timestamp dt:dt=""int"">0</Timestamp><DateUtc dt:dt=""string"">2018-10-30T22:34:47Z</DateUtc></StartTime><FrequencyChanges><FrequencyChange><Frequency dt:dt=""r8"">3020419</Frequency><Timestamp dt:dt=""r8"">26919442703</Timestamp><Current dt:dt=""r8"">0</Current><DateUtc dt:dt=""string"">2018-10-30T22:34:47Z</DateUtc></FrequencyChange></FrequencyChanges></Clock>\n"	000_R01_VB_allProc-37-1	60.023	1.0.0.185	1	1150214588	Professional	2.0.10.356	2.0.10.356	10-30-2018	n/a	18:34:47	2.0.10.252	5	0	0	931882	19	931882	3998	-999999	1113331	-3	1091822	0	Run1Proc	5	1	5	RunList	5	OfficeLarge	8000	1	1057835	1	1057835	-1	1057834	0	E1OfficeLargeBlockProc	5.0	1.0	5.0	n/a	n/a	n/a	n/a	n/a	n/a	n/a	n/a	n/a	n/a	n/a	n/a	Run1BlockList	6	n/a	n/a	n/a	n/a	n/a	n/a	n/a	n/a	n/a	n/a	n/a	n/a	n/a	n/a	n/a	n/a	n/a	n/a	n/a	n/a	n/a	n/a	n/a	n/a	n/a	n/a	n/a	n/a	n/a	n/a	n/a	n/a	n/a	n/a	n/a	n/a	n/a	n/a	n/a	n/a	n/a	n/a	n/a	n/a	n/a	n/a	n/a	n/a	n/a	n/a	n/a	n/a	n/a	n/a	n/a	n/a	n/a	n/a	n/a	n/a	6.0	1.0	6.0	n/a	n/a	n/a	n/a	n/a	n/a	n/a	n/a	n/a	n/a	n/a	n/a	n/a	n/a	n/a	n/a	n/a	n/a	n/a	n/a	n/a	n/a	n/a	n/a	n/a	n/a	n/a	E1_06.jpg	500	0	1057335	0	1057335	0	TrialProc1	E1OfficeLargeBlockList	2500	1	1054836	1	1054836	-1	1054835	2500	c	1650	1056485	122.955
134	2.5	000_R01_VB_allProc	37	1	"<?xml version=""1.0""?>\n<Clock xmlns:dt=""urn:schemas-microsoft-com:datatypes""><Description dt:dt=""string"">E-Prime Primary Realtime Clock</Description><StartTime><Timestamp dt:dt=""int"">0</Timestamp><DateUtc dt:dt=""string"">2018-10-30T22:34:47Z</DateUtc></StartTime><FrequencyChanges><FrequencyChange><Frequency dt:dt=""r8"">3020419</Frequency><Timestamp dt:dt=""r8"">26919442703</Timestamp><Current dt:dt=""r8"">0</Current><DateUtc dt:dt=""string"">2018-10-30T22:34:47Z</DateUtc></FrequencyChange></FrequencyChanges></Clock>\n"	000_R01_VB_allProc-37-1	60.023	1.0.0.185	1	1150214588	Professional	2.0.10.356	2.0.10.356	10-30-2018	n/a	18:34:47	2.0.10.252	5	0	0	931882	19	931882	3998	-999999	1113331	-3	1091822	0	Run1Proc	5	1	5	RunList	6	HighSmallED	8000	0	1083825	0	1083825	0	1083825	0	B1HighSmallEDBlockProc	6.0	1.0	6.0	n/a	n/a	n/a	n/a	n/a	n/a	n/a	n/a	n/a	n/a	n/a	n/a	Run1BlockList	1	n/a	n/a	n/a	n/a	n/a	n/a	n/a	n/a	n/a	n/a	n/a	n/a	n/a	n/a	n/a	1.0	1.0	1.0	n/a	n/a	n/a	n/a	n/a	n/a	n/a	n/a	n/a	n/a	n/a	n/a	n/a	n/a	n/a	n/a	n/a	n/a	n/a	n/a	n/a	n/a	n/a	n/a	n/a	n/a	n/a	n/a	n/a	n/a	n/a	n/a	n/a	n/a	n/a	n/a	n/a	n/a	n/a	n/a	n/a	n/a	n/a	n/a	n/a	n/a	n/a	n/a	n/a	n/a	n/a	n/a	n/a	n/a	n/a	n/a	n/a	n/a	n/a	n/a	n/a	n/a	n/a	n/a	n/a	n/a	n/a	n/a	n/a	n/a	n/a	n/a	B1_01.jpg	500	1	1068331	-1	1068330	0	TrialProc1	B1HighSmallEDBlockList	2500	0	1065831	0	1065831	-3	1065831	2499	d	1230	1067061	133.951
137	2.5	000_R01_VB_allProc	37	1	"<?xml version=""1.0""?>\n<Clock xmlns:dt=""urn:schemas-microsoft-com:datatypes""><Description dt:dt=""string"">E-Prime Primary Realtime Clock</Description><StartTime><Timestamp dt:dt=""int"">0</Timestamp><DateUtc dt:dt=""string"">2018-10-30T22:34:47Z</DateUtc></StartTime><FrequencyChanges><FrequencyChange><Frequency dt:dt=""r8"">3020419</Frequency><Timestamp dt:dt=""r8"">26919442703</Timestamp><Current dt:dt=""r8"">0</Current><DateUtc dt:dt=""string"">2018-10-30T22:34:47Z</DateUtc></FrequencyChange></FrequencyChanges></Clock>\n"	000_R01_VB_allProc-37-1	60.023	1.0.0.185	1	1150214588	Professional	2.0.10.356	2.0.10.356	10-30-2018	n/a	18:34:47	2.0.10.252	5	0	0	931882	19	931882	3998	-999999	1113331	-3	1091822	0	Run1Proc	5	1	5	RunList	6	HighSmallED	8000	0	1083825	0	1083825	0	1083825	0	B1HighSmallEDBlockProc	6.0	1.0	6.0	n/a	n/a	n/a	n/a	n/a	n/a	n/a	n/a	n/a	n/a	n/a	n/a	Run1BlockList	2	n/a	n/a	n/a	n/a	n/a	n/a	n/a	n/a	n/a	n/a	n/a	n/a	n/a	n/a	n/a	2.0	1.0	2.0	n/a	n/a	n/a	n/a	n/a	n/a	n/a	n/a	n/a	n/a	n/a	n/a	n/a	n/a	n/a	n/a	n/a	n/a	n/a	n/a	n/a	n/a	n/a	n/a	n/a	n/a	n/a	n/a	n/a	n/a	n/a	n/a	n/a	n/a	n/a	n/a	n/a	n/a	n/a	n/a	n/a	n/a	n/a	n/a	n/a	n/a	n/a	n/a	n/a	n/a	n/a	n/a	n/a	n/a	n/a	n/a	n/a	n/a	n/a	n/a	n/a	n/a	n/a	n/a	n/a	n/a	n/a	n/a	n/a	n/a	n/a	n/a	B1_02.jpg	500	0	1071329	-1	1071329	0	TrialProc1	B1HighSmallEDBlockList	2500	0	1068830	0	1068830	0	1068830	2499	d	838	1069668	136.95
140	2.5	000_R01_VB_allProc	37	1	"<?xml version=""1.0""?>\n<Clock xmlns:dt=""urn:schemas-microsoft-com:datatypes""><Description dt:dt=""string"">E-Prime Primary Realtime Clock</Description><StartTime><Timestamp dt:dt=""int"">0</Timestamp><DateUtc dt:dt=""string"">2018-10-30T22:34:47Z</DateUtc></StartTime><FrequencyChanges><FrequencyChange><Frequency dt:dt=""r8"">3020419</Frequency><Timestamp dt:dt=""r8"">26919442703</Timestamp><Current dt:dt=""r8"">0</Current><DateUtc dt:dt=""string"">2018-10-30T22:34:47Z</DateUtc></FrequencyChange></FrequencyChanges></Clock>\n"	000_R01_VB_allProc-37-1	60.023	1.0.0.185	1	1150214588	Professional	2.0.10.356	2.0.10.356	10-30-2018	n/a	18:34:47	2.0.10.252	5	0	0	931882	19	931882	3998	-999999	1113331	-3	1091822	0	Run1Proc	5	1	5	RunList	6	HighSmallED	8000	0	1083825	0	1083825	0	1083825	0	B1HighSmallEDBlockProc	6.0	1.0	6.0	n/a	n/a	n/a	n/a	n/a	n/a	n/a	n/a	n/a	n/a	n/a	n/a	Run1BlockList	3	n/a	n/a	n/a	n/a	n/a	n/a	n/a	n/a	n/a	n/a	n/a	n/a	n/a	n/a	n/a	3.0	1.0	3.0	n/a	n/a	n/a	n/a	n/a	n/a	n/a	n/a	n/a	n/a	n/a	n/a	n/a	n/a	n/a	n/a	n/a	n/a	n/a	n/a	n/a	n/a	n/a	n/a	n/a	n/a	n/a	n/a	n/a	n/a	n/a	n/a	n/a	n/a	n/a	n/a	n/a	n/a	n/a	n/a	n/a	n/a	n/a	n/a	n/a	n/a	n/a	n/a	n/a	n/a	n/a	n/a	n/a	n/a	n/a	n/a	n/a	n/a	n/a	n/a	n/a	n/a	n/a	n/a	n/a	n/a	n/a	n/a	n/a	n/a	n/a	n/a	B1_03.jpg	500	0	1074328	-1	1074328	0	TrialProc1	B1HighSmallEDBlockList	2500	0	1071829	0	1071829	0	1071829	2499	d	911	1072740	139.949
143	2.5	000_R01_VB_allProc	37	1	"<?xml version=""1.0""?>\n<Clock xmlns:dt=""urn:schemas-microsoft-com:datatypes""><Description dt:dt=""string"">E-Prime Primary Realtime Clock</Description><StartTime><Timestamp dt:dt=""int"">0</Timestamp><DateUtc dt:dt=""string"">2018-10-30T22:34:47Z</DateUtc></StartTime><FrequencyChanges><FrequencyChange><Frequency dt:dt=""r8"">3020419</Frequency><Timestamp dt:dt=""r8"">26919442703</Timestamp><Current dt:dt=""r8"">0</Current><DateUtc dt:dt=""string"">2018-10-30T22:34:47Z</DateUtc></FrequencyChange></FrequencyChanges></Clock>\n"	000_R01_VB_allProc-37-1	60.023	1.0.0.185	1	1150214588	Professional	2.0.10.356	2.0.10.356	10-30-2018	n/a	18:34:47	2.0.10.252	5	0	0	931882	19	931882	3998	-999999	1113331	-3	1091822	0	Run1Proc	5	1	5	RunList	6	HighSmallED	8000	0	1083825	0	1083825	0	1083825	0	B1HighSmallEDBlockProc	6.0	1.0	6.0	n/a	n/a	n/a	n/a	n/a	n/a	n/a	n/a	n/a	n/a	n/a	n/a	Run1BlockList	4	n/a	n/a	n/a	n/a	n/a	n/a	n/a	n/a	n/a	n/a	n/a	n/a	n/a	n/a	n/a	4.0	1.0	4.0	n/a	n/a	n/a	n/a	n/a	n/a	n/a	n/a	n/a	n/a	n/a	n/a	n/a	n/a	n/a	n/a	n/a	n/a	n/a	n/a	n/a	n/a	n/a	n/a	n/a	n/a	n/a	n/a	n/a	n/a	n/a	n/a	n/a	n/a	n/a	n/a	n/a	n/a	n/a	n/a	n/a	n/a	n/a	n/a	n/a	n/a	n/a	n/a	n/a	n/a	n/a	n/a	n/a	n/a	n/a	n/a	n/a	n/a	n/a	n/a	n/a	n/a	n/a	n/a	n/a	n/a	n/a	n/a	n/a	n/a	n/a	n/a	B1_04.jpg	500	0	1077327	-1	1077327	0	TrialProc1	B1HighSmallEDBlockList	2500	0	1074828	0	1074828	0	1074828	2499	d	760	1075588	142.948
146	2.5	000_R01_VB_allProc	37	1	"<?xml version=""1.0""?>\n<Clock xmlns:dt=""urn:schemas-microsoft-com:datatypes""><Description dt:dt=""string"">E-Prime Primary Realtime Clock</Description><StartTime><Timestamp dt:dt=""int"">0</Timestamp><DateUtc dt:dt=""string"">2018-10-30T22:34:47Z</DateUtc></StartTime><FrequencyChanges><FrequencyChange><Frequency dt:dt=""r8"">3020419</Frequency><Timestamp dt:dt=""r8"">26919442703</Timestamp><Current dt:dt=""r8"">0</Current><DateUtc dt:dt=""string"">2018-10-30T22:34:47Z</DateUtc></FrequencyChange></FrequencyChanges></Clock>\n"	000_R01_VB_allProc-37-1	60.023	1.0.0.185	1	1150214588	Professional	2.0.10.356	2.0.10.356	10-30-2018	n/a	18:34:47	2.0.10.252	5	0	0	931882	19	931882	3998	-999999	1113331	-3	1091822	0	Run1Proc	5	1	5	RunList	6	HighSmallED	8000	0	1083825	0	1083825	0	1083825	0	B1HighSmallEDBlockProc	6.0	1.0	6.0	n/a	n/a	n/a	n/a	n/a	n/a	n/a	n/a	n/a	n/a	n/a	n/a	Run1BlockList	5	n/a	n/a	n/a	n/a	n/a	n/a	n/a	n/a	n/a	n/a	n/a	n/a	n/a	n/a	n/a	5.0	1.0	5.0	n/a	n/a	n/a	n/a	n/a	n/a	n/a	n/a	n/a	n/a	n/a	n/a	n/a	n/a	n/a	n/a	n/a	n/a	n/a	n/a	n/a	n/a	n/a	n/a	n/a	n/a	n/a	n/a	n/a	n/a	n/a	n/a	n/a	n/a	n/a	n/a	n/a	n/a	n/a	n/a	n/a	n/a	n/a	n/a	n/a	n/a	n/a	n/a	n/a	n/a	n/a	n/a	n/a	n/a	n/a	n/a	n/a	n/a	n/a	n/a	n/a	n/a	n/a	n/a	n/a	n/a	n/a	n/a	n/a	n/a	n/a	n/a	B1_05.jpg	500	0	1080326	-1	1080326	0	TrialProc1	B1HighSmallEDBlockList	2500	0	1077827	0	1077827	0	1077827	2499	d	1897	1079724	145.947
149	2.5	000_R01_VB_allProc	37	1	"<?xml version=""1.0""?>\n<Clock xmlns:dt=""urn:schemas-microsoft-com:datatypes""><Description dt:dt=""string"">E-Prime Primary Realtime Clock</Description><StartTime><Timestamp dt:dt=""int"">0</Timestamp><DateUtc dt:dt=""string"">2018-10-30T22:34:47Z</DateUtc></StartTime><FrequencyChanges><FrequencyChange><Frequency dt:dt=""r8"">3020419</Frequency><Timestamp dt:dt=""r8"">26919442703</Timestamp><Current dt:dt=""r8"">0</Current><DateUtc dt:dt=""string"">2018-10-30T22:34:47Z</DateUtc></FrequencyChange></FrequencyChanges></Clock>\n"	000_R01_VB_allProc-37-1	60.023	1.0.0.185	1	1150214588	Professional	2.0.10.356	2.0.10.356	10-30-2018	n/a	18:34:47	2.0.10.252	5	0	0	931882	19	931882	3998	-999999	1113331	-3	1091822	0	Run1Proc	5	1	5	RunList	6	HighSmallED	8000	0	1083825	0	1083825	0	1083825	0	B1HighSmallEDBlockProc	6.0	1.0	6.0	n/a	n/a	n/a	n/a	n/a	n/a	n/a	n/a	n/a	n/a	n/a	n/a	Run1BlockList	6	n/a	n/a	n/a	n/a	n/a	n/a	n/a	n/a	n/a	n/a	n/a	n/a	n/a	n/a	n/a	6.0	1.0	6.0	n/a	n/a	n/a	n/a	n/a	n/a	n/a	n/a	n/a	n/a	n/a	n/a	n/a	n/a	n/a	n/a	n/a	n/a	n/a	n/a	n/a	n/a	n/a	n/a	n/a	n/a	n/a	n/a	n/a	n/a	n/a	n/a	n/a	n/a	n/a	n/a	n/a	n/a	n/a	n/a	n/a	n/a	n/a	n/a	n/a	n/a	n/a	n/a	n/a	n/a	n/a	n/a	n/a	n/a	n/a	n/a	n/a	n/a	n/a	n/a	n/a	n/a	n/a	n/a	n/a	n/a	n/a	n/a	n/a	n/a	n/a	n/a	B1_06.jpg	500	0	1083325	-1	1083325	0	TrialProc1	B1HighSmallEDBlockList	2500	0	1080826	0	1080826	0	1080826	2499	d	1250	1082076	148.946
