onset	duration	experiment_name	sub	ses	clock_information	datafile_basename	display_refreshrate	experiment_version	group	randomseed	runtime_capabilities	runtime_version	runtimeversionexpected	session_date	session_start_date_time_utc	session_time	studio_version	block	fixation2trs_durationerror	fixation2trs_offsetdelay	fixation2trs_offsettime	fixation2trs_onsetdelay	fixation2trs_onsettime	fixation2trs_onsettoonsettime	goodwork_durationerror	goodwork_finishtime	goodwork_onsetdelay	goodwork_onsettime	goodwork_onsettoonsettime	procedure_block	runlist	runlist_cycle	runlist_sample	running_block	trial	condition	interblockinterval_duration	interblockinterval_durationerror	interblockinterval_finishtime	interblockinterval_offsetdelay	interblockinterval_offsettime	interblockinterval_onsetdelay	interblockinterval_onsettime	interblockinterval_onsettoonsettime	procedure_trial	run1blocklist	run1blocklist_cycle	run1blocklist_sample	run2blocklist	run2blocklist_cycle	run2blocklist_sample	run3blocklist	run3blocklist_cycle	run3blocklist_sample	run4blocklist	run4blocklist_cycle	run4blocklist_sample	run5blocklist	run5blocklist_cycle	run5blocklist_sample	running_trial	subtrial	a1highlargeedblocklist	a1highlargeedblocklist_cycle	a1highlargeedblocklist_sample	a2highlargeedblocklist	a2highlargeedblocklist_cycle	a2highlargeedblocklist_sample	a3highlargeedblocklist	a3highlargeedblocklist_cycle	a3highlargeedblocklist_sample	a4highlargeedblocklist	a4highlargeedblocklist_cycle	a4highlargeedblocklist_sample	a5highlargeedblocklist	a5highlargeedblocklist_cycle	a5highlargeedblocklist_sample	b1highsmalledblocklist	b1highsmalledblocklist_cycle	b1highsmalledblocklist_sample	b2highsmalledblocklist	b2highsmalledblocklist_cycle	b2highsmalledblocklist_sample	b3highsmalledblocklist	b3highsmalledblocklist_cycle	b3highsmalledblocklist_sample	b4highsmalledblocklist	b4highsmalledblocklist_cycle	b4highsmalledblocklist_sample	b5highsmalledblocklist	b5highsmalledblocklist_cycle	b5highsmalledblocklist_sample	c1lowlargeedblocklist	c1lowlargeedblocklist_cycle	c1lowlargeedblocklist_sample	c2lowlargeedblocklist	c2lowlargeedblocklist_cycle	c2lowlargeedblocklist_sample	c3lowlargeedblocklist	c3lowlargeedblocklist_cycle	c3lowlargeedblocklist_sample	c4lowlargeedblocklist	c4lowlargeedblocklist_cycle	c4lowlargeedblocklist_sample	c5lowlargeedblocklist	c5lowlargeedblocklist_cycle	c5lowlargeedblocklist_sample	d1lowsmalledblocklist	d1lowsmalledblocklist_cycle	d1lowsmalledblocklist_sample	d2highlargeedblocklist	d2highlargeedblocklist_cycle	d2highlargeedblocklist_sample	d3lowsmalledblocklist	d3lowsmalledblocklist_cycle	d3lowsmalledblocklist_sample	d4lowsmalledblocklist	d4lowsmalledblocklist_cycle	d4lowsmalledblocklist_sample	d5lowsmalledblocklist	d5lowsmalledblocklist_cycle	d5lowsmalledblocklist_sample	e1officelargeblocklist	e1officelargeblocklist_cycle	e1officelargeblocklist_sample	e2officelargeblocklist	e2officelargeblocklist_cycle	e2officelargeblocklist_sample	e3officelargeblocklist	e3officelargeblocklist_cycle	e3officelargeblocklist_sample	e4officelargeblocklist	e4officelargeblocklist_cycle	e4officelargeblocklist_sample	e5officelargeblocklist	e5officelargeblocklist_cycle	e5officelargeblocklist_sample	f1officesmallblocklist	f1officesmallblocklist_cycle	f1officesmallblocklist_sample	f2officesmallblocklist	f2officesmallblocklist_cycle	f2officesmallblocklist_sample	f3officesmallblocklist	f3officesmallblocklist_cycle	f3officesmallblocklist_sample	f4officesmallblocklist	f4officesmallblocklist_cycle	f4officesmallblocklist_sample	f5officesmallblocklist	f5officesmallblocklist_cycle	f5officesmallblocklist_sample	filename	isi_duration	isi_durationerror	isi_finishtime	isi_onsetdelay	isi_onsettime	isi_onsettoonsettime	procedure_subtrial	running_subtrial	stimslide_duration	stimslide_durationerror	stimslide_finishtime	stimslide_offsetdelay	stimslide_offsettime	stimslide_onsetdelay	stimslide_onsettime	stimslide_onsettoonsettime	stimslide_resp	stimslide_rt	stimslide_rttime	onset_unrounded
4	2.5	000_R01_VA_allProc	23	1	"<?xml version=""1.0""?>\n<Clock xmlns:dt=""urn:schemas-microsoft-com:datatypes""><Description dt:dt=""string"">E-Prime Primary Realtime Clock</Description><StartTime><Timestamp dt:dt=""int"">0</Timestamp><DateUtc dt:dt=""string"">2018-09-04T20:53:38Z</DateUtc></StartTime><FrequencyChanges><FrequencyChange><Frequency dt:dt=""r8"">3020400</Frequency><Timestamp dt:dt=""r8"">42343426486</Timestamp><Current dt:dt=""r8"">0</Current><DateUtc dt:dt=""string"">2018-09-04T20:53:38Z</DateUtc></FrequencyChange></FrequencyChanges></Clock>\n"	000_R01_VA_allProc-23-1	60.022	1.0.0.183	1	-605677755	Professional	2.0.10.356	2.0.10.356	09-04-2018	9/4/2018 8:53:39 PM	16:53:39	2.0.10.252	2	0	0	303513	18	303513	3998	-999999	474553	-3	463720	0	Run3Proc	2	1	2	RunList	1	LowSmallED	8000	0	325505	0	325505	0	325505	0	D3LowSmallEDBlockProc	n/a	n/a	n/a	n/a	n/a	n/a	1.0	1.0	1.0	n/a	n/a	n/a	n/a	n/a	n/a	Run3BlockList	1	n/a	n/a	n/a	n/a	n/a	n/a	n/a	n/a	n/a	n/a	n/a	n/a	n/a	n/a	n/a	n/a	n/a	n/a	n/a	n/a	n/a	n/a	n/a	n/a	n/a	n/a	n/a	n/a	n/a	n/a	n/a	n/a	n/a	n/a	n/a	n/a	n/a	n/a	n/a	n/a	n/a	n/a	n/a	n/a	n/a	n/a	n/a	n/a	n/a	n/a	n/a	1.0	1.0	1.0	n/a	n/a	n/a	n/a	n/a	n/a	n/a	n/a	n/a	n/a	n/a	n/a	n/a	n/a	n/a	n/a	n/a	n/a	n/a	n/a	n/a	n/a	n/a	n/a	n/a	n/a	n/a	n/a	n/a	n/a	n/a	n/a	n/a	n/a	n/a	n/a	D3_01.jpg	500	0	310010	-1	310010	0	TrialProc1	D3LowSmallEDBlockList	2500	0	307511	0	307511	-2	307511	2499	n/a	0	0	4.0
7	2.5	000_R01_VA_allProc	23	1	"<?xml version=""1.0""?>\n<Clock xmlns:dt=""urn:schemas-microsoft-com:datatypes""><Description dt:dt=""string"">E-Prime Primary Realtime Clock</Description><StartTime><Timestamp dt:dt=""int"">0</Timestamp><DateUtc dt:dt=""string"">2018-09-04T20:53:38Z</DateUtc></StartTime><FrequencyChanges><FrequencyChange><Frequency dt:dt=""r8"">3020400</Frequency><Timestamp dt:dt=""r8"">42343426486</Timestamp><Current dt:dt=""r8"">0</Current><DateUtc dt:dt=""string"">2018-09-04T20:53:38Z</DateUtc></FrequencyChange></FrequencyChanges></Clock>\n"	000_R01_VA_allProc-23-1	60.022	1.0.0.183	1	-605677755	Professional	2.0.10.356	2.0.10.356	09-04-2018	9/4/2018 8:53:39 PM	16:53:39	2.0.10.252	2	0	0	303513	18	303513	3998	-999999	474553	-3	463720	0	Run3Proc	2	1	2	RunList	1	LowSmallED	8000	0	325505	0	325505	0	325505	0	D3LowSmallEDBlockProc	n/a	n/a	n/a	n/a	n/a	n/a	1.0	1.0	1.0	n/a	n/a	n/a	n/a	n/a	n/a	Run3BlockList	2	n/a	n/a	n/a	n/a	n/a	n/a	n/a	n/a	n/a	n/a	n/a	n/a	n/a	n/a	n/a	n/a	n/a	n/a	n/a	n/a	n/a	n/a	n/a	n/a	n/a	n/a	n/a	n/a	n/a	n/a	n/a	n/a	n/a	n/a	n/a	n/a	n/a	n/a	n/a	n/a	n/a	n/a	n/a	n/a	n/a	n/a	n/a	n/a	n/a	n/a	n/a	2.0	1.0	2.0	n/a	n/a	n/a	n/a	n/a	n/a	n/a	n/a	n/a	n/a	n/a	n/a	n/a	n/a	n/a	n/a	n/a	n/a	n/a	n/a	n/a	n/a	n/a	n/a	n/a	n/a	n/a	n/a	n/a	n/a	n/a	n/a	n/a	n/a	n/a	n/a	D3_02.jpg	500	0	313009	-1	313009	0	TrialProc1	D3LowSmallEDBlockList	2500	0	310510	0	310510	0	310510	2499	c	766	311276	6.9990000000000006
10	2.5	000_R01_VA_allProc	23	1	"<?xml version=""1.0""?>\n<Clock xmlns:dt=""urn:schemas-microsoft-com:datatypes""><Description dt:dt=""string"">E-Prime Primary Realtime Clock</Description><StartTime><Timestamp dt:dt=""int"">0</Timestamp><DateUtc dt:dt=""string"">2018-09-04T20:53:38Z</DateUtc></StartTime><FrequencyChanges><FrequencyChange><Frequency dt:dt=""r8"">3020400</Frequency><Timestamp dt:dt=""r8"">42343426486</Timestamp><Current dt:dt=""r8"">0</Current><DateUtc dt:dt=""string"">2018-09-04T20:53:38Z</DateUtc></FrequencyChange></FrequencyChanges></Clock>\n"	000_R01_VA_allProc-23-1	60.022	1.0.0.183	1	-605677755	Professional	2.0.10.356	2.0.10.356	09-04-2018	9/4/2018 8:53:39 PM	16:53:39	2.0.10.252	2	0	0	303513	18	303513	3998	-999999	474553	-3	463720	0	Run3Proc	2	1	2	RunList	1	LowSmallED	8000	0	325505	0	325505	0	325505	0	D3LowSmallEDBlockProc	n/a	n/a	n/a	n/a	n/a	n/a	1.0	1.0	1.0	n/a	n/a	n/a	n/a	n/a	n/a	Run3BlockList	3	n/a	n/a	n/a	n/a	n/a	n/a	n/a	n/a	n/a	n/a	n/a	n/a	n/a	n/a	n/a	n/a	n/a	n/a	n/a	n/a	n/a	n/a	n/a	n/a	n/a	n/a	n/a	n/a	n/a	n/a	n/a	n/a	n/a	n/a	n/a	n/a	n/a	n/a	n/a	n/a	n/a	n/a	n/a	n/a	n/a	n/a	n/a	n/a	n/a	n/a	n/a	3.0	1.0	3.0	n/a	n/a	n/a	n/a	n/a	n/a	n/a	n/a	n/a	n/a	n/a	n/a	n/a	n/a	n/a	n/a	n/a	n/a	n/a	n/a	n/a	n/a	n/a	n/a	n/a	n/a	n/a	n/a	n/a	n/a	n/a	n/a	n/a	n/a	n/a	n/a	D3_03.jpg	500	0	316008	-1	316008	0	TrialProc1	D3LowSmallEDBlockList	2500	0	313509	0	313509	0	313509	2499	c	879	314388	9.998000000000001
13	2.5	000_R01_VA_allProc	23	1	"<?xml version=""1.0""?>\n<Clock xmlns:dt=""urn:schemas-microsoft-com:datatypes""><Description dt:dt=""string"">E-Prime Primary Realtime Clock</Description><StartTime><Timestamp dt:dt=""int"">0</Timestamp><DateUtc dt:dt=""string"">2018-09-04T20:53:38Z</DateUtc></StartTime><FrequencyChanges><FrequencyChange><Frequency dt:dt=""r8"">3020400</Frequency><Timestamp dt:dt=""r8"">42343426486</Timestamp><Current dt:dt=""r8"">0</Current><DateUtc dt:dt=""string"">2018-09-04T20:53:38Z</DateUtc></FrequencyChange></FrequencyChanges></Clock>\n"	000_R01_VA_allProc-23-1	60.022	1.0.0.183	1	-605677755	Professional	2.0.10.356	2.0.10.356	09-04-2018	9/4/2018 8:53:39 PM	16:53:39	2.0.10.252	2	0	0	303513	18	303513	3998	-999999	474553	-3	463720	0	Run3Proc	2	1	2	RunList	1	LowSmallED	8000	0	325505	0	325505	0	325505	0	D3LowSmallEDBlockProc	n/a	n/a	n/a	n/a	n/a	n/a	1.0	1.0	1.0	n/a	n/a	n/a	n/a	n/a	n/a	Run3BlockList	4	n/a	n/a	n/a	n/a	n/a	n/a	n/a	n/a	n/a	n/a	n/a	n/a	n/a	n/a	n/a	n/a	n/a	n/a	n/a	n/a	n/a	n/a	n/a	n/a	n/a	n/a	n/a	n/a	n/a	n/a	n/a	n/a	n/a	n/a	n/a	n/a	n/a	n/a	n/a	n/a	n/a	n/a	n/a	n/a	n/a	n/a	n/a	n/a	n/a	n/a	n/a	4.0	1.0	4.0	n/a	n/a	n/a	n/a	n/a	n/a	n/a	n/a	n/a	n/a	n/a	n/a	n/a	n/a	n/a	n/a	n/a	n/a	n/a	n/a	n/a	n/a	n/a	n/a	n/a	n/a	n/a	n/a	n/a	n/a	n/a	n/a	n/a	n/a	n/a	n/a	D3_04.jpg	500	0	319007	-1	319007	0	TrialProc1	D3LowSmallEDBlockList	2500	0	316508	0	316508	0	316508	2499	c	800	317308	12.997
16	2.5	000_R01_VA_allProc	23	1	"<?xml version=""1.0""?>\n<Clock xmlns:dt=""urn:schemas-microsoft-com:datatypes""><Description dt:dt=""string"">E-Prime Primary Realtime Clock</Description><StartTime><Timestamp dt:dt=""int"">0</Timestamp><DateUtc dt:dt=""string"">2018-09-04T20:53:38Z</DateUtc></StartTime><FrequencyChanges><FrequencyChange><Frequency dt:dt=""r8"">3020400</Frequency><Timestamp dt:dt=""r8"">42343426486</Timestamp><Current dt:dt=""r8"">0</Current><DateUtc dt:dt=""string"">2018-09-04T20:53:38Z</DateUtc></FrequencyChange></FrequencyChanges></Clock>\n"	000_R01_VA_allProc-23-1	60.022	1.0.0.183	1	-605677755	Professional	2.0.10.356	2.0.10.356	09-04-2018	9/4/2018 8:53:39 PM	16:53:39	2.0.10.252	2	0	0	303513	18	303513	3998	-999999	474553	-3	463720	0	Run3Proc	2	1	2	RunList	1	LowSmallED	8000	0	325505	0	325505	0	325505	0	D3LowSmallEDBlockProc	n/a	n/a	n/a	n/a	n/a	n/a	1.0	1.0	1.0	n/a	n/a	n/a	n/a	n/a	n/a	Run3BlockList	5	n/a	n/a	n/a	n/a	n/a	n/a	n/a	n/a	n/a	n/a	n/a	n/a	n/a	n/a	n/a	n/a	n/a	n/a	n/a	n/a	n/a	n/a	n/a	n/a	n/a	n/a	n/a	n/a	n/a	n/a	n/a	n/a	n/a	n/a	n/a	n/a	n/a	n/a	n/a	n/a	n/a	n/a	n/a	n/a	n/a	n/a	n/a	n/a	n/a	n/a	n/a	5.0	1.0	5.0	n/a	n/a	n/a	n/a	n/a	n/a	n/a	n/a	n/a	n/a	n/a	n/a	n/a	n/a	n/a	n/a	n/a	n/a	n/a	n/a	n/a	n/a	n/a	n/a	n/a	n/a	n/a	n/a	n/a	n/a	n/a	n/a	n/a	n/a	n/a	n/a	D3_05.jpg	500	0	322006	-1	322006	0	TrialProc1	D3LowSmallEDBlockList	2500	0	319507	0	319507	0	319507	2499	c	537	320044	15.996
19	2.5	000_R01_VA_allProc	23	1	"<?xml version=""1.0""?>\n<Clock xmlns:dt=""urn:schemas-microsoft-com:datatypes""><Description dt:dt=""string"">E-Prime Primary Realtime Clock</Description><StartTime><Timestamp dt:dt=""int"">0</Timestamp><DateUtc dt:dt=""string"">2018-09-04T20:53:38Z</DateUtc></StartTime><FrequencyChanges><FrequencyChange><Frequency dt:dt=""r8"">3020400</Frequency><Timestamp dt:dt=""r8"">42343426486</Timestamp><Current dt:dt=""r8"">0</Current><DateUtc dt:dt=""string"">2018-09-04T20:53:38Z</DateUtc></FrequencyChange></FrequencyChanges></Clock>\n"	000_R01_VA_allProc-23-1	60.022	1.0.0.183	1	-605677755	Professional	2.0.10.356	2.0.10.356	09-04-2018	9/4/2018 8:53:39 PM	16:53:39	2.0.10.252	2	0	0	303513	18	303513	3998	-999999	474553	-3	463720	0	Run3Proc	2	1	2	RunList	1	LowSmallED	8000	0	325505	0	325505	0	325505	0	D3LowSmallEDBlockProc	n/a	n/a	n/a	n/a	n/a	n/a	1.0	1.0	1.0	n/a	n/a	n/a	n/a	n/a	n/a	Run3BlockList	6	n/a	n/a	n/a	n/a	n/a	n/a	n/a	n/a	n/a	n/a	n/a	n/a	n/a	n/a	n/a	n/a	n/a	n/a	n/a	n/a	n/a	n/a	n/a	n/a	n/a	n/a	n/a	n/a	n/a	n/a	n/a	n/a	n/a	n/a	n/a	n/a	n/a	n/a	n/a	n/a	n/a	n/a	n/a	n/a	n/a	n/a	n/a	n/a	n/a	n/a	n/a	6.0	1.0	6.0	n/a	n/a	n/a	n/a	n/a	n/a	n/a	n/a	n/a	n/a	n/a	n/a	n/a	n/a	n/a	n/a	n/a	n/a	n/a	n/a	n/a	n/a	n/a	n/a	n/a	n/a	n/a	n/a	n/a	n/a	n/a	n/a	n/a	n/a	n/a	n/a	D3_06.jpg	500	0	325005	-1	325005	0	TrialProc1	D3LowSmallEDBlockList	2500	0	322506	0	322506	0	322506	2499	c	738	323244	18.994999999999997
30	2.5	000_R01_VA_allProc	23	1	"<?xml version=""1.0""?>\n<Clock xmlns:dt=""urn:schemas-microsoft-com:datatypes""><Description dt:dt=""string"">E-Prime Primary Realtime Clock</Description><StartTime><Timestamp dt:dt=""int"">0</Timestamp><DateUtc dt:dt=""string"">2018-09-04T20:53:38Z</DateUtc></StartTime><FrequencyChanges><FrequencyChange><Frequency dt:dt=""r8"">3020400</Frequency><Timestamp dt:dt=""r8"">42343426486</Timestamp><Current dt:dt=""r8"">0</Current><DateUtc dt:dt=""string"">2018-09-04T20:53:38Z</DateUtc></FrequencyChange></FrequencyChanges></Clock>\n"	000_R01_VA_allProc-23-1	60.022	1.0.0.183	1	-605677755	Professional	2.0.10.356	2.0.10.356	09-04-2018	9/4/2018 8:53:39 PM	16:53:39	2.0.10.252	2	0	0	303513	18	303513	3998	-999999	474553	-3	463720	0	Run3Proc	2	1	2	RunList	2	OfficeLarge	8000	0	351495	0	351495	0	351495	0	E3OfficeLargeBlockProc	n/a	n/a	n/a	n/a	n/a	n/a	2.0	1.0	2.0	n/a	n/a	n/a	n/a	n/a	n/a	Run3BlockList	1	n/a	n/a	n/a	n/a	n/a	n/a	n/a	n/a	n/a	n/a	n/a	n/a	n/a	n/a	n/a	n/a	n/a	n/a	n/a	n/a	n/a	n/a	n/a	n/a	n/a	n/a	n/a	n/a	n/a	n/a	n/a	n/a	n/a	n/a	n/a	n/a	n/a	n/a	n/a	n/a	n/a	n/a	n/a	n/a	n/a	n/a	n/a	n/a	n/a	n/a	n/a	n/a	n/a	n/a	n/a	n/a	n/a	n/a	n/a	n/a	n/a	n/a	n/a	n/a	n/a	n/a	1.0	1.0	1.0	n/a	n/a	n/a	n/a	n/a	n/a	n/a	n/a	n/a	n/a	n/a	n/a	n/a	n/a	n/a	n/a	n/a	n/a	n/a	n/a	n/a	E3_01.jpg	500	0	336001	-1	336001	0	TrialProc1	E3OfficeLargeBlockList	2500	0	333502	0	333502	-3	333502	2499	c	1342	334844	29.991
33	2.5	000_R01_VA_allProc	23	1	"<?xml version=""1.0""?>\n<Clock xmlns:dt=""urn:schemas-microsoft-com:datatypes""><Description dt:dt=""string"">E-Prime Primary Realtime Clock</Description><StartTime><Timestamp dt:dt=""int"">0</Timestamp><DateUtc dt:dt=""string"">2018-09-04T20:53:38Z</DateUtc></StartTime><FrequencyChanges><FrequencyChange><Frequency dt:dt=""r8"">3020400</Frequency><Timestamp dt:dt=""r8"">42343426486</Timestamp><Current dt:dt=""r8"">0</Current><DateUtc dt:dt=""string"">2018-09-04T20:53:38Z</DateUtc></FrequencyChange></FrequencyChanges></Clock>\n"	000_R01_VA_allProc-23-1	60.022	1.0.0.183	1	-605677755	Professional	2.0.10.356	2.0.10.356	09-04-2018	9/4/2018 8:53:39 PM	16:53:39	2.0.10.252	2	0	0	303513	18	303513	3998	-999999	474553	-3	463720	0	Run3Proc	2	1	2	RunList	2	OfficeLarge	8000	0	351495	0	351495	0	351495	0	E3OfficeLargeBlockProc	n/a	n/a	n/a	n/a	n/a	n/a	2.0	1.0	2.0	n/a	n/a	n/a	n/a	n/a	n/a	Run3BlockList	2	n/a	n/a	n/a	n/a	n/a	n/a	n/a	n/a	n/a	n/a	n/a	n/a	n/a	n/a	n/a	n/a	n/a	n/a	n/a	n/a	n/a	n/a	n/a	n/a	n/a	n/a	n/a	n/a	n/a	n/a	n/a	n/a	n/a	n/a	n/a	n/a	n/a	n/a	n/a	n/a	n/a	n/a	n/a	n/a	n/a	n/a	n/a	n/a	n/a	n/a	n/a	n/a	n/a	n/a	n/a	n/a	n/a	n/a	n/a	n/a	n/a	n/a	n/a	n/a	n/a	n/a	2.0	1.0	2.0	n/a	n/a	n/a	n/a	n/a	n/a	n/a	n/a	n/a	n/a	n/a	n/a	n/a	n/a	n/a	n/a	n/a	n/a	n/a	n/a	n/a	E3_02.jpg	500	0	339000	0	339000	0	TrialProc1	E3OfficeLargeBlockList	2500	1	336501	1	336501	-1	336500	2500	c	1032	337532	32.989000000000004
36	2.5	000_R01_VA_allProc	23	1	"<?xml version=""1.0""?>\n<Clock xmlns:dt=""urn:schemas-microsoft-com:datatypes""><Description dt:dt=""string"">E-Prime Primary Realtime Clock</Description><StartTime><Timestamp dt:dt=""int"">0</Timestamp><DateUtc dt:dt=""string"">2018-09-04T20:53:38Z</DateUtc></StartTime><FrequencyChanges><FrequencyChange><Frequency dt:dt=""r8"">3020400</Frequency><Timestamp dt:dt=""r8"">42343426486</Timestamp><Current dt:dt=""r8"">0</Current><DateUtc dt:dt=""string"">2018-09-04T20:53:38Z</DateUtc></FrequencyChange></FrequencyChanges></Clock>\n"	000_R01_VA_allProc-23-1	60.022	1.0.0.183	1	-605677755	Professional	2.0.10.356	2.0.10.356	09-04-2018	9/4/2018 8:53:39 PM	16:53:39	2.0.10.252	2	0	0	303513	18	303513	3998	-999999	474553	-3	463720	0	Run3Proc	2	1	2	RunList	2	OfficeLarge	8000	0	351495	0	351495	0	351495	0	E3OfficeLargeBlockProc	n/a	n/a	n/a	n/a	n/a	n/a	2.0	1.0	2.0	n/a	n/a	n/a	n/a	n/a	n/a	Run3BlockList	3	n/a	n/a	n/a	n/a	n/a	n/a	n/a	n/a	n/a	n/a	n/a	n/a	n/a	n/a	n/a	n/a	n/a	n/a	n/a	n/a	n/a	n/a	n/a	n/a	n/a	n/a	n/a	n/a	n/a	n/a	n/a	n/a	n/a	n/a	n/a	n/a	n/a	n/a	n/a	n/a	n/a	n/a	n/a	n/a	n/a	n/a	n/a	n/a	n/a	n/a	n/a	n/a	n/a	n/a	n/a	n/a	n/a	n/a	n/a	n/a	n/a	n/a	n/a	n/a	n/a	n/a	3.0	1.0	3.0	n/a	n/a	n/a	n/a	n/a	n/a	n/a	n/a	n/a	n/a	n/a	n/a	n/a	n/a	n/a	n/a	n/a	n/a	n/a	n/a	n/a	E3_03.jpg	500	0	341999	-1	341998	0	TrialProc1	E3OfficeLargeBlockList	2500	0	339499	0	339499	-1	339499	2499	c	833	340332	35.988
39	2.5	000_R01_VA_allProc	23	1	"<?xml version=""1.0""?>\n<Clock xmlns:dt=""urn:schemas-microsoft-com:datatypes""><Description dt:dt=""string"">E-Prime Primary Realtime Clock</Description><StartTime><Timestamp dt:dt=""int"">0</Timestamp><DateUtc dt:dt=""string"">2018-09-04T20:53:38Z</DateUtc></StartTime><FrequencyChanges><FrequencyChange><Frequency dt:dt=""r8"">3020400</Frequency><Timestamp dt:dt=""r8"">42343426486</Timestamp><Current dt:dt=""r8"">0</Current><DateUtc dt:dt=""string"">2018-09-04T20:53:38Z</DateUtc></FrequencyChange></FrequencyChanges></Clock>\n"	000_R01_VA_allProc-23-1	60.022	1.0.0.183	1	-605677755	Professional	2.0.10.356	2.0.10.356	09-04-2018	9/4/2018 8:53:39 PM	16:53:39	2.0.10.252	2	0	0	303513	18	303513	3998	-999999	474553	-3	463720	0	Run3Proc	2	1	2	RunList	2	OfficeLarge	8000	0	351495	0	351495	0	351495	0	E3OfficeLargeBlockProc	n/a	n/a	n/a	n/a	n/a	n/a	2.0	1.0	2.0	n/a	n/a	n/a	n/a	n/a	n/a	Run3BlockList	4	n/a	n/a	n/a	n/a	n/a	n/a	n/a	n/a	n/a	n/a	n/a	n/a	n/a	n/a	n/a	n/a	n/a	n/a	n/a	n/a	n/a	n/a	n/a	n/a	n/a	n/a	n/a	n/a	n/a	n/a	n/a	n/a	n/a	n/a	n/a	n/a	n/a	n/a	n/a	n/a	n/a	n/a	n/a	n/a	n/a	n/a	n/a	n/a	n/a	n/a	n/a	n/a	n/a	n/a	n/a	n/a	n/a	n/a	n/a	n/a	n/a	n/a	n/a	n/a	n/a	n/a	4.0	1.0	4.0	n/a	n/a	n/a	n/a	n/a	n/a	n/a	n/a	n/a	n/a	n/a	n/a	n/a	n/a	n/a	n/a	n/a	n/a	n/a	n/a	n/a	E3_04.jpg	500	0	344997	-1	344997	0	TrialProc1	E3OfficeLargeBlockList	2500	0	342498	0	342498	0	342498	2499	c	722	343220	38.987
42	2.5	000_R01_VA_allProc	23	1	"<?xml version=""1.0""?>\n<Clock xmlns:dt=""urn:schemas-microsoft-com:datatypes""><Description dt:dt=""string"">E-Prime Primary Realtime Clock</Description><StartTime><Timestamp dt:dt=""int"">0</Timestamp><DateUtc dt:dt=""string"">2018-09-04T20:53:38Z</DateUtc></StartTime><FrequencyChanges><FrequencyChange><Frequency dt:dt=""r8"">3020400</Frequency><Timestamp dt:dt=""r8"">42343426486</Timestamp><Current dt:dt=""r8"">0</Current><DateUtc dt:dt=""string"">2018-09-04T20:53:38Z</DateUtc></FrequencyChange></FrequencyChanges></Clock>\n"	000_R01_VA_allProc-23-1	60.022	1.0.0.183	1	-605677755	Professional	2.0.10.356	2.0.10.356	09-04-2018	9/4/2018 8:53:39 PM	16:53:39	2.0.10.252	2	0	0	303513	18	303513	3998	-999999	474553	-3	463720	0	Run3Proc	2	1	2	RunList	2	OfficeLarge	8000	0	351495	0	351495	0	351495	0	E3OfficeLargeBlockProc	n/a	n/a	n/a	n/a	n/a	n/a	2.0	1.0	2.0	n/a	n/a	n/a	n/a	n/a	n/a	Run3BlockList	5	n/a	n/a	n/a	n/a	n/a	n/a	n/a	n/a	n/a	n/a	n/a	n/a	n/a	n/a	n/a	n/a	n/a	n/a	n/a	n/a	n/a	n/a	n/a	n/a	n/a	n/a	n/a	n/a	n/a	n/a	n/a	n/a	n/a	n/a	n/a	n/a	n/a	n/a	n/a	n/a	n/a	n/a	n/a	n/a	n/a	n/a	n/a	n/a	n/a	n/a	n/a	n/a	n/a	n/a	n/a	n/a	n/a	n/a	n/a	n/a	n/a	n/a	n/a	n/a	n/a	n/a	5.0	1.0	5.0	n/a	n/a	n/a	n/a	n/a	n/a	n/a	n/a	n/a	n/a	n/a	n/a	n/a	n/a	n/a	n/a	n/a	n/a	n/a	n/a	n/a	E3_05.jpg	500	0	347996	-1	347996	0	TrialProc1	E3OfficeLargeBlockList	2500	0	345497	0	345497	0	345497	2499	c	571	346068	41.986
45	2.5	000_R01_VA_allProc	23	1	"<?xml version=""1.0""?>\n<Clock xmlns:dt=""urn:schemas-microsoft-com:datatypes""><Description dt:dt=""string"">E-Prime Primary Realtime Clock</Description><StartTime><Timestamp dt:dt=""int"">0</Timestamp><DateUtc dt:dt=""string"">2018-09-04T20:53:38Z</DateUtc></StartTime><FrequencyChanges><FrequencyChange><Frequency dt:dt=""r8"">3020400</Frequency><Timestamp dt:dt=""r8"">42343426486</Timestamp><Current dt:dt=""r8"">0</Current><DateUtc dt:dt=""string"">2018-09-04T20:53:38Z</DateUtc></FrequencyChange></FrequencyChanges></Clock>\n"	000_R01_VA_allProc-23-1	60.022	1.0.0.183	1	-605677755	Professional	2.0.10.356	2.0.10.356	09-04-2018	9/4/2018 8:53:39 PM	16:53:39	2.0.10.252	2	0	0	303513	18	303513	3998	-999999	474553	-3	463720	0	Run3Proc	2	1	2	RunList	2	OfficeLarge	8000	0	351495	0	351495	0	351495	0	E3OfficeLargeBlockProc	n/a	n/a	n/a	n/a	n/a	n/a	2.0	1.0	2.0	n/a	n/a	n/a	n/a	n/a	n/a	Run3BlockList	6	n/a	n/a	n/a	n/a	n/a	n/a	n/a	n/a	n/a	n/a	n/a	n/a	n/a	n/a	n/a	n/a	n/a	n/a	n/a	n/a	n/a	n/a	n/a	n/a	n/a	n/a	n/a	n/a	n/a	n/a	n/a	n/a	n/a	n/a	n/a	n/a	n/a	n/a	n/a	n/a	n/a	n/a	n/a	n/a	n/a	n/a	n/a	n/a	n/a	n/a	n/a	n/a	n/a	n/a	n/a	n/a	n/a	n/a	n/a	n/a	n/a	n/a	n/a	n/a	n/a	n/a	6.0	1.0	6.0	n/a	n/a	n/a	n/a	n/a	n/a	n/a	n/a	n/a	n/a	n/a	n/a	n/a	n/a	n/a	n/a	n/a	n/a	n/a	n/a	n/a	E3_06.jpg	500	0	350995	-1	350995	0	TrialProc1	E3OfficeLargeBlockList	2500	0	348496	0	348496	0	348496	2499	c	708	349204	44.985
56	2.5	000_R01_VA_allProc	23	1	"<?xml version=""1.0""?>\n<Clock xmlns:dt=""urn:schemas-microsoft-com:datatypes""><Description dt:dt=""string"">E-Prime Primary Realtime Clock</Description><StartTime><Timestamp dt:dt=""int"">0</Timestamp><DateUtc dt:dt=""string"">2018-09-04T20:53:38Z</DateUtc></StartTime><FrequencyChanges><FrequencyChange><Frequency dt:dt=""r8"">3020400</Frequency><Timestamp dt:dt=""r8"">42343426486</Timestamp><Current dt:dt=""r8"">0</Current><DateUtc dt:dt=""string"">2018-09-04T20:53:38Z</DateUtc></FrequencyChange></FrequencyChanges></Clock>\n"	000_R01_VA_allProc-23-1	60.022	1.0.0.183	1	-605677755	Professional	2.0.10.356	2.0.10.356	09-04-2018	9/4/2018 8:53:39 PM	16:53:39	2.0.10.252	2	0	0	303513	18	303513	3998	-999999	474553	-3	463720	0	Run3Proc	2	1	2	RunList	3	HighSmallED	8000	0	377485	0	377485	-1	377485	0	B3HighSmallEDBlockProc	n/a	n/a	n/a	n/a	n/a	n/a	3.0	1.0	3.0	n/a	n/a	n/a	n/a	n/a	n/a	Run3BlockList	1	n/a	n/a	n/a	n/a	n/a	n/a	n/a	n/a	n/a	n/a	n/a	n/a	n/a	n/a	n/a	n/a	n/a	n/a	n/a	n/a	n/a	1.0	1.0	1.0	n/a	n/a	n/a	n/a	n/a	n/a	n/a	n/a	n/a	n/a	n/a	n/a	n/a	n/a	n/a	n/a	n/a	n/a	n/a	n/a	n/a	n/a	n/a	n/a	n/a	n/a	n/a	n/a	n/a	n/a	n/a	n/a	n/a	n/a	n/a	n/a	n/a	n/a	n/a	n/a	n/a	n/a	n/a	n/a	n/a	n/a	n/a	n/a	n/a	n/a	n/a	n/a	n/a	n/a	n/a	n/a	n/a	n/a	n/a	n/a	n/a	n/a	n/a	n/a	n/a	n/a	B3_01.jpg	500	0	361991	-1	361991	0	TrialProc1	B3HighSmallEDBlockList	2500	0	359492	0	359492	-3	359492	2499	d	2240	361732	55.981
59	2.5	000_R01_VA_allProc	23	1	"<?xml version=""1.0""?>\n<Clock xmlns:dt=""urn:schemas-microsoft-com:datatypes""><Description dt:dt=""string"">E-Prime Primary Realtime Clock</Description><StartTime><Timestamp dt:dt=""int"">0</Timestamp><DateUtc dt:dt=""string"">2018-09-04T20:53:38Z</DateUtc></StartTime><FrequencyChanges><FrequencyChange><Frequency dt:dt=""r8"">3020400</Frequency><Timestamp dt:dt=""r8"">42343426486</Timestamp><Current dt:dt=""r8"">0</Current><DateUtc dt:dt=""string"">2018-09-04T20:53:38Z</DateUtc></FrequencyChange></FrequencyChanges></Clock>\n"	000_R01_VA_allProc-23-1	60.022	1.0.0.183	1	-605677755	Professional	2.0.10.356	2.0.10.356	09-04-2018	9/4/2018 8:53:39 PM	16:53:39	2.0.10.252	2	0	0	303513	18	303513	3998	-999999	474553	-3	463720	0	Run3Proc	2	1	2	RunList	3	HighSmallED	8000	0	377485	0	377485	-1	377485	0	B3HighSmallEDBlockProc	n/a	n/a	n/a	n/a	n/a	n/a	3.0	1.0	3.0	n/a	n/a	n/a	n/a	n/a	n/a	Run3BlockList	2	n/a	n/a	n/a	n/a	n/a	n/a	n/a	n/a	n/a	n/a	n/a	n/a	n/a	n/a	n/a	n/a	n/a	n/a	n/a	n/a	n/a	2.0	1.0	2.0	n/a	n/a	n/a	n/a	n/a	n/a	n/a	n/a	n/a	n/a	n/a	n/a	n/a	n/a	n/a	n/a	n/a	n/a	n/a	n/a	n/a	n/a	n/a	n/a	n/a	n/a	n/a	n/a	n/a	n/a	n/a	n/a	n/a	n/a	n/a	n/a	n/a	n/a	n/a	n/a	n/a	n/a	n/a	n/a	n/a	n/a	n/a	n/a	n/a	n/a	n/a	n/a	n/a	n/a	n/a	n/a	n/a	n/a	n/a	n/a	n/a	n/a	n/a	n/a	n/a	n/a	B3_02.jpg	500	0	364990	-1	364990	0	TrialProc1	B3HighSmallEDBlockList	2500	0	362491	0	362491	0	362491	2499	d	1664	364155	58.98
62	2.5	000_R01_VA_allProc	23	1	"<?xml version=""1.0""?>\n<Clock xmlns:dt=""urn:schemas-microsoft-com:datatypes""><Description dt:dt=""string"">E-Prime Primary Realtime Clock</Description><StartTime><Timestamp dt:dt=""int"">0</Timestamp><DateUtc dt:dt=""string"">2018-09-04T20:53:38Z</DateUtc></StartTime><FrequencyChanges><FrequencyChange><Frequency dt:dt=""r8"">3020400</Frequency><Timestamp dt:dt=""r8"">42343426486</Timestamp><Current dt:dt=""r8"">0</Current><DateUtc dt:dt=""string"">2018-09-04T20:53:38Z</DateUtc></FrequencyChange></FrequencyChanges></Clock>\n"	000_R01_VA_allProc-23-1	60.022	1.0.0.183	1	-605677755	Professional	2.0.10.356	2.0.10.356	09-04-2018	9/4/2018 8:53:39 PM	16:53:39	2.0.10.252	2	0	0	303513	18	303513	3998	-999999	474553	-3	463720	0	Run3Proc	2	1	2	RunList	3	HighSmallED	8000	0	377485	0	377485	-1	377485	0	B3HighSmallEDBlockProc	n/a	n/a	n/a	n/a	n/a	n/a	3.0	1.0	3.0	n/a	n/a	n/a	n/a	n/a	n/a	Run3BlockList	3	n/a	n/a	n/a	n/a	n/a	n/a	n/a	n/a	n/a	n/a	n/a	n/a	n/a	n/a	n/a	n/a	n/a	n/a	n/a	n/a	n/a	3.0	1.0	3.0	n/a	n/a	n/a	n/a	n/a	n/a	n/a	n/a	n/a	n/a	n/a	n/a	n/a	n/a	n/a	n/a	n/a	n/a	n/a	n/a	n/a	n/a	n/a	n/a	n/a	n/a	n/a	n/a	n/a	n/a	n/a	n/a	n/a	n/a	n/a	n/a	n/a	n/a	n/a	n/a	n/a	n/a	n/a	n/a	n/a	n/a	n/a	n/a	n/a	n/a	n/a	n/a	n/a	n/a	n/a	n/a	n/a	n/a	n/a	n/a	n/a	n/a	n/a	n/a	n/a	n/a	B3_03.jpg	500	0	367989	-1	367989	0	TrialProc1	B3HighSmallEDBlockList	2500	0	365490	0	365490	0	365490	2499	c	1289	366779	61.979
65	2.5	000_R01_VA_allProc	23	1	"<?xml version=""1.0""?>\n<Clock xmlns:dt=""urn:schemas-microsoft-com:datatypes""><Description dt:dt=""string"">E-Prime Primary Realtime Clock</Description><StartTime><Timestamp dt:dt=""int"">0</Timestamp><DateUtc dt:dt=""string"">2018-09-04T20:53:38Z</DateUtc></StartTime><FrequencyChanges><FrequencyChange><Frequency dt:dt=""r8"">3020400</Frequency><Timestamp dt:dt=""r8"">42343426486</Timestamp><Current dt:dt=""r8"">0</Current><DateUtc dt:dt=""string"">2018-09-04T20:53:38Z</DateUtc></FrequencyChange></FrequencyChanges></Clock>\n"	000_R01_VA_allProc-23-1	60.022	1.0.0.183	1	-605677755	Professional	2.0.10.356	2.0.10.356	09-04-2018	9/4/2018 8:53:39 PM	16:53:39	2.0.10.252	2	0	0	303513	18	303513	3998	-999999	474553	-3	463720	0	Run3Proc	2	1	2	RunList	3	HighSmallED	8000	0	377485	0	377485	-1	377485	0	B3HighSmallEDBlockProc	n/a	n/a	n/a	n/a	n/a	n/a	3.0	1.0	3.0	n/a	n/a	n/a	n/a	n/a	n/a	Run3BlockList	4	n/a	n/a	n/a	n/a	n/a	n/a	n/a	n/a	n/a	n/a	n/a	n/a	n/a	n/a	n/a	n/a	n/a	n/a	n/a	n/a	n/a	4.0	1.0	4.0	n/a	n/a	n/a	n/a	n/a	n/a	n/a	n/a	n/a	n/a	n/a	n/a	n/a	n/a	n/a	n/a	n/a	n/a	n/a	n/a	n/a	n/a	n/a	n/a	n/a	n/a	n/a	n/a	n/a	n/a	n/a	n/a	n/a	n/a	n/a	n/a	n/a	n/a	n/a	n/a	n/a	n/a	n/a	n/a	n/a	n/a	n/a	n/a	n/a	n/a	n/a	n/a	n/a	n/a	n/a	n/a	n/a	n/a	n/a	n/a	n/a	n/a	n/a	n/a	n/a	n/a	B3_04.jpg	500	0	370988	-1	370988	0	TrialProc1	B3HighSmallEDBlockList	2500	0	368489	0	368489	0	368489	2499	d	1210	369699	64.97800000000001
68	2.5	000_R01_VA_allProc	23	1	"<?xml version=""1.0""?>\n<Clock xmlns:dt=""urn:schemas-microsoft-com:datatypes""><Description dt:dt=""string"">E-Prime Primary Realtime Clock</Description><StartTime><Timestamp dt:dt=""int"">0</Timestamp><DateUtc dt:dt=""string"">2018-09-04T20:53:38Z</DateUtc></StartTime><FrequencyChanges><FrequencyChange><Frequency dt:dt=""r8"">3020400</Frequency><Timestamp dt:dt=""r8"">42343426486</Timestamp><Current dt:dt=""r8"">0</Current><DateUtc dt:dt=""string"">2018-09-04T20:53:38Z</DateUtc></FrequencyChange></FrequencyChanges></Clock>\n"	000_R01_VA_allProc-23-1	60.022	1.0.0.183	1	-605677755	Professional	2.0.10.356	2.0.10.356	09-04-2018	9/4/2018 8:53:39 PM	16:53:39	2.0.10.252	2	0	0	303513	18	303513	3998	-999999	474553	-3	463720	0	Run3Proc	2	1	2	RunList	3	HighSmallED	8000	0	377485	0	377485	-1	377485	0	B3HighSmallEDBlockProc	n/a	n/a	n/a	n/a	n/a	n/a	3.0	1.0	3.0	n/a	n/a	n/a	n/a	n/a	n/a	Run3BlockList	5	n/a	n/a	n/a	n/a	n/a	n/a	n/a	n/a	n/a	n/a	n/a	n/a	n/a	n/a	n/a	n/a	n/a	n/a	n/a	n/a	n/a	5.0	1.0	5.0	n/a	n/a	n/a	n/a	n/a	n/a	n/a	n/a	n/a	n/a	n/a	n/a	n/a	n/a	n/a	n/a	n/a	n/a	n/a	n/a	n/a	n/a	n/a	n/a	n/a	n/a	n/a	n/a	n/a	n/a	n/a	n/a	n/a	n/a	n/a	n/a	n/a	n/a	n/a	n/a	n/a	n/a	n/a	n/a	n/a	n/a	n/a	n/a	n/a	n/a	n/a	n/a	n/a	n/a	n/a	n/a	n/a	n/a	n/a	n/a	n/a	n/a	n/a	n/a	n/a	n/a	B3_05.jpg	500	0	373987	-1	373987	0	TrialProc1	B3HighSmallEDBlockList	2500	0	371488	0	371488	0	371488	2499	d	2019	373507	67.977
71	2.5	000_R01_VA_allProc	23	1	"<?xml version=""1.0""?>\n<Clock xmlns:dt=""urn:schemas-microsoft-com:datatypes""><Description dt:dt=""string"">E-Prime Primary Realtime Clock</Description><StartTime><Timestamp dt:dt=""int"">0</Timestamp><DateUtc dt:dt=""string"">2018-09-04T20:53:38Z</DateUtc></StartTime><FrequencyChanges><FrequencyChange><Frequency dt:dt=""r8"">3020400</Frequency><Timestamp dt:dt=""r8"">42343426486</Timestamp><Current dt:dt=""r8"">0</Current><DateUtc dt:dt=""string"">2018-09-04T20:53:38Z</DateUtc></FrequencyChange></FrequencyChanges></Clock>\n"	000_R01_VA_allProc-23-1	60.022	1.0.0.183	1	-605677755	Professional	2.0.10.356	2.0.10.356	09-04-2018	9/4/2018 8:53:39 PM	16:53:39	2.0.10.252	2	0	0	303513	18	303513	3998	-999999	474553	-3	463720	0	Run3Proc	2	1	2	RunList	3	HighSmallED	8000	0	377485	0	377485	-1	377485	0	B3HighSmallEDBlockProc	n/a	n/a	n/a	n/a	n/a	n/a	3.0	1.0	3.0	n/a	n/a	n/a	n/a	n/a	n/a	Run3BlockList	6	n/a	n/a	n/a	n/a	n/a	n/a	n/a	n/a	n/a	n/a	n/a	n/a	n/a	n/a	n/a	n/a	n/a	n/a	n/a	n/a	n/a	6.0	1.0	6.0	n/a	n/a	n/a	n/a	n/a	n/a	n/a	n/a	n/a	n/a	n/a	n/a	n/a	n/a	n/a	n/a	n/a	n/a	n/a	n/a	n/a	n/a	n/a	n/a	n/a	n/a	n/a	n/a	n/a	n/a	n/a	n/a	n/a	n/a	n/a	n/a	n/a	n/a	n/a	n/a	n/a	n/a	n/a	n/a	n/a	n/a	n/a	n/a	n/a	n/a	n/a	n/a	n/a	n/a	n/a	n/a	n/a	n/a	n/a	n/a	n/a	n/a	n/a	n/a	n/a	n/a	B3_06.jpg	500	0	376986	0	376986	0	TrialProc1	B3HighSmallEDBlockList	2500	1	374487	1	374487	-1	374486	2500	d	1837	376323	70.975
82	2.5	000_R01_VA_allProc	23	1	"<?xml version=""1.0""?>\n<Clock xmlns:dt=""urn:schemas-microsoft-com:datatypes""><Description dt:dt=""string"">E-Prime Primary Realtime Clock</Description><StartTime><Timestamp dt:dt=""int"">0</Timestamp><DateUtc dt:dt=""string"">2018-09-04T20:53:38Z</DateUtc></StartTime><FrequencyChanges><FrequencyChange><Frequency dt:dt=""r8"">3020400</Frequency><Timestamp dt:dt=""r8"">42343426486</Timestamp><Current dt:dt=""r8"">0</Current><DateUtc dt:dt=""string"">2018-09-04T20:53:38Z</DateUtc></FrequencyChange></FrequencyChanges></Clock>\n"	000_R01_VA_allProc-23-1	60.022	1.0.0.183	1	-605677755	Professional	2.0.10.356	2.0.10.356	09-04-2018	9/4/2018 8:53:39 PM	16:53:39	2.0.10.252	2	0	0	303513	18	303513	3998	-999999	474553	-3	463720	0	Run3Proc	2	1	2	RunList	4	OfficeSmall	8000	0	403476	0	403476	0	403476	0	F3OfficeSmallBlockProc	n/a	n/a	n/a	n/a	n/a	n/a	4.0	1.0	4.0	n/a	n/a	n/a	n/a	n/a	n/a	Run3BlockList	1	n/a	n/a	n/a	n/a	n/a	n/a	n/a	n/a	n/a	n/a	n/a	n/a	n/a	n/a	n/a	n/a	n/a	n/a	n/a	n/a	n/a	n/a	n/a	n/a	n/a	n/a	n/a	n/a	n/a	n/a	n/a	n/a	n/a	n/a	n/a	n/a	n/a	n/a	n/a	n/a	n/a	n/a	n/a	n/a	n/a	n/a	n/a	n/a	n/a	n/a	n/a	n/a	n/a	n/a	n/a	n/a	n/a	n/a	n/a	n/a	n/a	n/a	n/a	n/a	n/a	n/a	n/a	n/a	n/a	n/a	n/a	n/a	n/a	n/a	n/a	n/a	n/a	n/a	n/a	n/a	n/a	1.0	1.0	1.0	n/a	n/a	n/a	n/a	n/a	n/a	F3_01.jpg	500	1	387982	-1	387981	0	TrialProc1	F3OfficeSmallBlockList	2500	0	385482	0	385482	-3	385482	2499	c	1217	386699	81.971
85	2.5	000_R01_VA_allProc	23	1	"<?xml version=""1.0""?>\n<Clock xmlns:dt=""urn:schemas-microsoft-com:datatypes""><Description dt:dt=""string"">E-Prime Primary Realtime Clock</Description><StartTime><Timestamp dt:dt=""int"">0</Timestamp><DateUtc dt:dt=""string"">2018-09-04T20:53:38Z</DateUtc></StartTime><FrequencyChanges><FrequencyChange><Frequency dt:dt=""r8"">3020400</Frequency><Timestamp dt:dt=""r8"">42343426486</Timestamp><Current dt:dt=""r8"">0</Current><DateUtc dt:dt=""string"">2018-09-04T20:53:38Z</DateUtc></FrequencyChange></FrequencyChanges></Clock>\n"	000_R01_VA_allProc-23-1	60.022	1.0.0.183	1	-605677755	Professional	2.0.10.356	2.0.10.356	09-04-2018	9/4/2018 8:53:39 PM	16:53:39	2.0.10.252	2	0	0	303513	18	303513	3998	-999999	474553	-3	463720	0	Run3Proc	2	1	2	RunList	4	OfficeSmall	8000	0	403476	0	403476	0	403476	0	F3OfficeSmallBlockProc	n/a	n/a	n/a	n/a	n/a	n/a	4.0	1.0	4.0	n/a	n/a	n/a	n/a	n/a	n/a	Run3BlockList	2	n/a	n/a	n/a	n/a	n/a	n/a	n/a	n/a	n/a	n/a	n/a	n/a	n/a	n/a	n/a	n/a	n/a	n/a	n/a	n/a	n/a	n/a	n/a	n/a	n/a	n/a	n/a	n/a	n/a	n/a	n/a	n/a	n/a	n/a	n/a	n/a	n/a	n/a	n/a	n/a	n/a	n/a	n/a	n/a	n/a	n/a	n/a	n/a	n/a	n/a	n/a	n/a	n/a	n/a	n/a	n/a	n/a	n/a	n/a	n/a	n/a	n/a	n/a	n/a	n/a	n/a	n/a	n/a	n/a	n/a	n/a	n/a	n/a	n/a	n/a	n/a	n/a	n/a	n/a	n/a	n/a	2.0	1.0	2.0	n/a	n/a	n/a	n/a	n/a	n/a	F3_02.jpg	500	0	390980	-1	390980	0	TrialProc1	F3OfficeSmallBlockList	2500	0	388481	0	388481	0	388481	2499	c	850	389331	84.97
88	2.5	000_R01_VA_allProc	23	1	"<?xml version=""1.0""?>\n<Clock xmlns:dt=""urn:schemas-microsoft-com:datatypes""><Description dt:dt=""string"">E-Prime Primary Realtime Clock</Description><StartTime><Timestamp dt:dt=""int"">0</Timestamp><DateUtc dt:dt=""string"">2018-09-04T20:53:38Z</DateUtc></StartTime><FrequencyChanges><FrequencyChange><Frequency dt:dt=""r8"">3020400</Frequency><Timestamp dt:dt=""r8"">42343426486</Timestamp><Current dt:dt=""r8"">0</Current><DateUtc dt:dt=""string"">2018-09-04T20:53:38Z</DateUtc></FrequencyChange></FrequencyChanges></Clock>\n"	000_R01_VA_allProc-23-1	60.022	1.0.0.183	1	-605677755	Professional	2.0.10.356	2.0.10.356	09-04-2018	9/4/2018 8:53:39 PM	16:53:39	2.0.10.252	2	0	0	303513	18	303513	3998	-999999	474553	-3	463720	0	Run3Proc	2	1	2	RunList	4	OfficeSmall	8000	0	403476	0	403476	0	403476	0	F3OfficeSmallBlockProc	n/a	n/a	n/a	n/a	n/a	n/a	4.0	1.0	4.0	n/a	n/a	n/a	n/a	n/a	n/a	Run3BlockList	3	n/a	n/a	n/a	n/a	n/a	n/a	n/a	n/a	n/a	n/a	n/a	n/a	n/a	n/a	n/a	n/a	n/a	n/a	n/a	n/a	n/a	n/a	n/a	n/a	n/a	n/a	n/a	n/a	n/a	n/a	n/a	n/a	n/a	n/a	n/a	n/a	n/a	n/a	n/a	n/a	n/a	n/a	n/a	n/a	n/a	n/a	n/a	n/a	n/a	n/a	n/a	n/a	n/a	n/a	n/a	n/a	n/a	n/a	n/a	n/a	n/a	n/a	n/a	n/a	n/a	n/a	n/a	n/a	n/a	n/a	n/a	n/a	n/a	n/a	n/a	n/a	n/a	n/a	n/a	n/a	n/a	3.0	1.0	3.0	n/a	n/a	n/a	n/a	n/a	n/a	F3_03.jpg	500	0	393979	-1	393979	0	TrialProc1	F3OfficeSmallBlockList	2500	0	391480	0	391480	0	391480	2499	c	1259	392739	87.969
91	2.5	000_R01_VA_allProc	23	1	"<?xml version=""1.0""?>\n<Clock xmlns:dt=""urn:schemas-microsoft-com:datatypes""><Description dt:dt=""string"">E-Prime Primary Realtime Clock</Description><StartTime><Timestamp dt:dt=""int"">0</Timestamp><DateUtc dt:dt=""string"">2018-09-04T20:53:38Z</DateUtc></StartTime><FrequencyChanges><FrequencyChange><Frequency dt:dt=""r8"">3020400</Frequency><Timestamp dt:dt=""r8"">42343426486</Timestamp><Current dt:dt=""r8"">0</Current><DateUtc dt:dt=""string"">2018-09-04T20:53:38Z</DateUtc></FrequencyChange></FrequencyChanges></Clock>\n"	000_R01_VA_allProc-23-1	60.022	1.0.0.183	1	-605677755	Professional	2.0.10.356	2.0.10.356	09-04-2018	9/4/2018 8:53:39 PM	16:53:39	2.0.10.252	2	0	0	303513	18	303513	3998	-999999	474553	-3	463720	0	Run3Proc	2	1	2	RunList	4	OfficeSmall	8000	0	403476	0	403476	0	403476	0	F3OfficeSmallBlockProc	n/a	n/a	n/a	n/a	n/a	n/a	4.0	1.0	4.0	n/a	n/a	n/a	n/a	n/a	n/a	Run3BlockList	4	n/a	n/a	n/a	n/a	n/a	n/a	n/a	n/a	n/a	n/a	n/a	n/a	n/a	n/a	n/a	n/a	n/a	n/a	n/a	n/a	n/a	n/a	n/a	n/a	n/a	n/a	n/a	n/a	n/a	n/a	n/a	n/a	n/a	n/a	n/a	n/a	n/a	n/a	n/a	n/a	n/a	n/a	n/a	n/a	n/a	n/a	n/a	n/a	n/a	n/a	n/a	n/a	n/a	n/a	n/a	n/a	n/a	n/a	n/a	n/a	n/a	n/a	n/a	n/a	n/a	n/a	n/a	n/a	n/a	n/a	n/a	n/a	n/a	n/a	n/a	n/a	n/a	n/a	n/a	n/a	n/a	4.0	1.0	4.0	n/a	n/a	n/a	n/a	n/a	n/a	F3_04.jpg	500	0	396978	-1	396978	0	TrialProc1	F3OfficeSmallBlockList	2500	0	394479	0	394479	0	394479	2499	c	1076	395555	90.968
94	2.5	000_R01_VA_allProc	23	1	"<?xml version=""1.0""?>\n<Clock xmlns:dt=""urn:schemas-microsoft-com:datatypes""><Description dt:dt=""string"">E-Prime Primary Realtime Clock</Description><StartTime><Timestamp dt:dt=""int"">0</Timestamp><DateUtc dt:dt=""string"">2018-09-04T20:53:38Z</DateUtc></StartTime><FrequencyChanges><FrequencyChange><Frequency dt:dt=""r8"">3020400</Frequency><Timestamp dt:dt=""r8"">42343426486</Timestamp><Current dt:dt=""r8"">0</Current><DateUtc dt:dt=""string"">2018-09-04T20:53:38Z</DateUtc></FrequencyChange></FrequencyChanges></Clock>\n"	000_R01_VA_allProc-23-1	60.022	1.0.0.183	1	-605677755	Professional	2.0.10.356	2.0.10.356	09-04-2018	9/4/2018 8:53:39 PM	16:53:39	2.0.10.252	2	0	0	303513	18	303513	3998	-999999	474553	-3	463720	0	Run3Proc	2	1	2	RunList	4	OfficeSmall	8000	0	403476	0	403476	0	403476	0	F3OfficeSmallBlockProc	n/a	n/a	n/a	n/a	n/a	n/a	4.0	1.0	4.0	n/a	n/a	n/a	n/a	n/a	n/a	Run3BlockList	5	n/a	n/a	n/a	n/a	n/a	n/a	n/a	n/a	n/a	n/a	n/a	n/a	n/a	n/a	n/a	n/a	n/a	n/a	n/a	n/a	n/a	n/a	n/a	n/a	n/a	n/a	n/a	n/a	n/a	n/a	n/a	n/a	n/a	n/a	n/a	n/a	n/a	n/a	n/a	n/a	n/a	n/a	n/a	n/a	n/a	n/a	n/a	n/a	n/a	n/a	n/a	n/a	n/a	n/a	n/a	n/a	n/a	n/a	n/a	n/a	n/a	n/a	n/a	n/a	n/a	n/a	n/a	n/a	n/a	n/a	n/a	n/a	n/a	n/a	n/a	n/a	n/a	n/a	n/a	n/a	n/a	5.0	1.0	5.0	n/a	n/a	n/a	n/a	n/a	n/a	F3_05.jpg	500	0	399977	-1	399977	0	TrialProc1	F3OfficeSmallBlockList	2500	0	397478	0	397478	0	397478	2499	c	997	398475	93.967
97	2.5	000_R01_VA_allProc	23	1	"<?xml version=""1.0""?>\n<Clock xmlns:dt=""urn:schemas-microsoft-com:datatypes""><Description dt:dt=""string"">E-Prime Primary Realtime Clock</Description><StartTime><Timestamp dt:dt=""int"">0</Timestamp><DateUtc dt:dt=""string"">2018-09-04T20:53:38Z</DateUtc></StartTime><FrequencyChanges><FrequencyChange><Frequency dt:dt=""r8"">3020400</Frequency><Timestamp dt:dt=""r8"">42343426486</Timestamp><Current dt:dt=""r8"">0</Current><DateUtc dt:dt=""string"">2018-09-04T20:53:38Z</DateUtc></FrequencyChange></FrequencyChanges></Clock>\n"	000_R01_VA_allProc-23-1	60.022	1.0.0.183	1	-605677755	Professional	2.0.10.356	2.0.10.356	09-04-2018	9/4/2018 8:53:39 PM	16:53:39	2.0.10.252	2	0	0	303513	18	303513	3998	-999999	474553	-3	463720	0	Run3Proc	2	1	2	RunList	4	OfficeSmall	8000	0	403476	0	403476	0	403476	0	F3OfficeSmallBlockProc	n/a	n/a	n/a	n/a	n/a	n/a	4.0	1.0	4.0	n/a	n/a	n/a	n/a	n/a	n/a	Run3BlockList	6	n/a	n/a	n/a	n/a	n/a	n/a	n/a	n/a	n/a	n/a	n/a	n/a	n/a	n/a	n/a	n/a	n/a	n/a	n/a	n/a	n/a	n/a	n/a	n/a	n/a	n/a	n/a	n/a	n/a	n/a	n/a	n/a	n/a	n/a	n/a	n/a	n/a	n/a	n/a	n/a	n/a	n/a	n/a	n/a	n/a	n/a	n/a	n/a	n/a	n/a	n/a	n/a	n/a	n/a	n/a	n/a	n/a	n/a	n/a	n/a	n/a	n/a	n/a	n/a	n/a	n/a	n/a	n/a	n/a	n/a	n/a	n/a	n/a	n/a	n/a	n/a	n/a	n/a	n/a	n/a	n/a	6.0	1.0	6.0	n/a	n/a	n/a	n/a	n/a	n/a	F3_06.jpg	500	0	402976	-1	402976	0	TrialProc1	F3OfficeSmallBlockList	2500	0	400477	0	400477	0	400477	2499	c	1646	402123	96.966
108	2.5	000_R01_VA_allProc	23	1	"<?xml version=""1.0""?>\n<Clock xmlns:dt=""urn:schemas-microsoft-com:datatypes""><Description dt:dt=""string"">E-Prime Primary Realtime Clock</Description><StartTime><Timestamp dt:dt=""int"">0</Timestamp><DateUtc dt:dt=""string"">2018-09-04T20:53:38Z</DateUtc></StartTime><FrequencyChanges><FrequencyChange><Frequency dt:dt=""r8"">3020400</Frequency><Timestamp dt:dt=""r8"">42343426486</Timestamp><Current dt:dt=""r8"">0</Current><DateUtc dt:dt=""string"">2018-09-04T20:53:38Z</DateUtc></FrequencyChange></FrequencyChanges></Clock>\n"	000_R01_VA_allProc-23-1	60.022	1.0.0.183	1	-605677755	Professional	2.0.10.356	2.0.10.356	09-04-2018	9/4/2018 8:53:39 PM	16:53:39	2.0.10.252	2	0	0	303513	18	303513	3998	-999999	474553	-3	463720	0	Run3Proc	2	1	2	RunList	5	HighLargeED	8000	0	429466	0	429466	0	429466	0	A3HighLargeEDBlockProc	n/a	n/a	n/a	n/a	n/a	n/a	5.0	1.0	5.0	n/a	n/a	n/a	n/a	n/a	n/a	Run3BlockList	1	n/a	n/a	n/a	n/a	n/a	n/a	1.0	1.0	1.0	n/a	n/a	n/a	n/a	n/a	n/a	n/a	n/a	n/a	n/a	n/a	n/a	n/a	n/a	n/a	n/a	n/a	n/a	n/a	n/a	n/a	n/a	n/a	n/a	n/a	n/a	n/a	n/a	n/a	n/a	n/a	n/a	n/a	n/a	n/a	n/a	n/a	n/a	n/a	n/a	n/a	n/a	n/a	n/a	n/a	n/a	n/a	n/a	n/a	n/a	n/a	n/a	n/a	n/a	n/a	n/a	n/a	n/a	n/a	n/a	n/a	n/a	n/a	n/a	n/a	n/a	n/a	n/a	n/a	n/a	n/a	n/a	n/a	n/a	n/a	n/a	n/a	n/a	n/a	n/a	n/a	A3_01.jpg	500	0	413972	-1	413972	0	TrialProc1	A3HighLargeEDBlockList	2500	0	411473	0	411473	-3	411473	2499	d	1554	413027	107.962
111	2.5	000_R01_VA_allProc	23	1	"<?xml version=""1.0""?>\n<Clock xmlns:dt=""urn:schemas-microsoft-com:datatypes""><Description dt:dt=""string"">E-Prime Primary Realtime Clock</Description><StartTime><Timestamp dt:dt=""int"">0</Timestamp><DateUtc dt:dt=""string"">2018-09-04T20:53:38Z</DateUtc></StartTime><FrequencyChanges><FrequencyChange><Frequency dt:dt=""r8"">3020400</Frequency><Timestamp dt:dt=""r8"">42343426486</Timestamp><Current dt:dt=""r8"">0</Current><DateUtc dt:dt=""string"">2018-09-04T20:53:38Z</DateUtc></FrequencyChange></FrequencyChanges></Clock>\n"	000_R01_VA_allProc-23-1	60.022	1.0.0.183	1	-605677755	Professional	2.0.10.356	2.0.10.356	09-04-2018	9/4/2018 8:53:39 PM	16:53:39	2.0.10.252	2	0	0	303513	18	303513	3998	-999999	474553	-3	463720	0	Run3Proc	2	1	2	RunList	5	HighLargeED	8000	0	429466	0	429466	0	429466	0	A3HighLargeEDBlockProc	n/a	n/a	n/a	n/a	n/a	n/a	5.0	1.0	5.0	n/a	n/a	n/a	n/a	n/a	n/a	Run3BlockList	2	n/a	n/a	n/a	n/a	n/a	n/a	2.0	1.0	2.0	n/a	n/a	n/a	n/a	n/a	n/a	n/a	n/a	n/a	n/a	n/a	n/a	n/a	n/a	n/a	n/a	n/a	n/a	n/a	n/a	n/a	n/a	n/a	n/a	n/a	n/a	n/a	n/a	n/a	n/a	n/a	n/a	n/a	n/a	n/a	n/a	n/a	n/a	n/a	n/a	n/a	n/a	n/a	n/a	n/a	n/a	n/a	n/a	n/a	n/a	n/a	n/a	n/a	n/a	n/a	n/a	n/a	n/a	n/a	n/a	n/a	n/a	n/a	n/a	n/a	n/a	n/a	n/a	n/a	n/a	n/a	n/a	n/a	n/a	n/a	n/a	n/a	n/a	n/a	n/a	n/a	A3_02.jpg	500	0	416971	-1	416971	0	TrialProc1	A3HighLargeEDBlockList	2500	0	414472	0	414472	0	414472	2499	d	1531	416003	110.961
114	2.5	000_R01_VA_allProc	23	1	"<?xml version=""1.0""?>\n<Clock xmlns:dt=""urn:schemas-microsoft-com:datatypes""><Description dt:dt=""string"">E-Prime Primary Realtime Clock</Description><StartTime><Timestamp dt:dt=""int"">0</Timestamp><DateUtc dt:dt=""string"">2018-09-04T20:53:38Z</DateUtc></StartTime><FrequencyChanges><FrequencyChange><Frequency dt:dt=""r8"">3020400</Frequency><Timestamp dt:dt=""r8"">42343426486</Timestamp><Current dt:dt=""r8"">0</Current><DateUtc dt:dt=""string"">2018-09-04T20:53:38Z</DateUtc></FrequencyChange></FrequencyChanges></Clock>\n"	000_R01_VA_allProc-23-1	60.022	1.0.0.183	1	-605677755	Professional	2.0.10.356	2.0.10.356	09-04-2018	9/4/2018 8:53:39 PM	16:53:39	2.0.10.252	2	0	0	303513	18	303513	3998	-999999	474553	-3	463720	0	Run3Proc	2	1	2	RunList	5	HighLargeED	8000	0	429466	0	429466	0	429466	0	A3HighLargeEDBlockProc	n/a	n/a	n/a	n/a	n/a	n/a	5.0	1.0	5.0	n/a	n/a	n/a	n/a	n/a	n/a	Run3BlockList	3	n/a	n/a	n/a	n/a	n/a	n/a	3.0	1.0	3.0	n/a	n/a	n/a	n/a	n/a	n/a	n/a	n/a	n/a	n/a	n/a	n/a	n/a	n/a	n/a	n/a	n/a	n/a	n/a	n/a	n/a	n/a	n/a	n/a	n/a	n/a	n/a	n/a	n/a	n/a	n/a	n/a	n/a	n/a	n/a	n/a	n/a	n/a	n/a	n/a	n/a	n/a	n/a	n/a	n/a	n/a	n/a	n/a	n/a	n/a	n/a	n/a	n/a	n/a	n/a	n/a	n/a	n/a	n/a	n/a	n/a	n/a	n/a	n/a	n/a	n/a	n/a	n/a	n/a	n/a	n/a	n/a	n/a	n/a	n/a	n/a	n/a	n/a	n/a	n/a	n/a	A3_03.jpg	500	0	419970	-1	419970	0	TrialProc1	A3HighLargeEDBlockList	2500	0	417471	0	417471	0	417471	2499	d	1236	418707	113.96
117	2.5	000_R01_VA_allProc	23	1	"<?xml version=""1.0""?>\n<Clock xmlns:dt=""urn:schemas-microsoft-com:datatypes""><Description dt:dt=""string"">E-Prime Primary Realtime Clock</Description><StartTime><Timestamp dt:dt=""int"">0</Timestamp><DateUtc dt:dt=""string"">2018-09-04T20:53:38Z</DateUtc></StartTime><FrequencyChanges><FrequencyChange><Frequency dt:dt=""r8"">3020400</Frequency><Timestamp dt:dt=""r8"">42343426486</Timestamp><Current dt:dt=""r8"">0</Current><DateUtc dt:dt=""string"">2018-09-04T20:53:38Z</DateUtc></FrequencyChange></FrequencyChanges></Clock>\n"	000_R01_VA_allProc-23-1	60.022	1.0.0.183	1	-605677755	Professional	2.0.10.356	2.0.10.356	09-04-2018	9/4/2018 8:53:39 PM	16:53:39	2.0.10.252	2	0	0	303513	18	303513	3998	-999999	474553	-3	463720	0	Run3Proc	2	1	2	RunList	5	HighLargeED	8000	0	429466	0	429466	0	429466	0	A3HighLargeEDBlockProc	n/a	n/a	n/a	n/a	n/a	n/a	5.0	1.0	5.0	n/a	n/a	n/a	n/a	n/a	n/a	Run3BlockList	4	n/a	n/a	n/a	n/a	n/a	n/a	4.0	1.0	4.0	n/a	n/a	n/a	n/a	n/a	n/a	n/a	n/a	n/a	n/a	n/a	n/a	n/a	n/a	n/a	n/a	n/a	n/a	n/a	n/a	n/a	n/a	n/a	n/a	n/a	n/a	n/a	n/a	n/a	n/a	n/a	n/a	n/a	n/a	n/a	n/a	n/a	n/a	n/a	n/a	n/a	n/a	n/a	n/a	n/a	n/a	n/a	n/a	n/a	n/a	n/a	n/a	n/a	n/a	n/a	n/a	n/a	n/a	n/a	n/a	n/a	n/a	n/a	n/a	n/a	n/a	n/a	n/a	n/a	n/a	n/a	n/a	n/a	n/a	n/a	n/a	n/a	n/a	n/a	n/a	n/a	A3_04.jpg	500	0	422969	0	422969	0	TrialProc1	A3HighLargeEDBlockList	2500	1	420470	1	420470	-1	420469	2500	d	1190	421659	116.958
120	2.5	000_R01_VA_allProc	23	1	"<?xml version=""1.0""?>\n<Clock xmlns:dt=""urn:schemas-microsoft-com:datatypes""><Description dt:dt=""string"">E-Prime Primary Realtime Clock</Description><StartTime><Timestamp dt:dt=""int"">0</Timestamp><DateUtc dt:dt=""string"">2018-09-04T20:53:38Z</DateUtc></StartTime><FrequencyChanges><FrequencyChange><Frequency dt:dt=""r8"">3020400</Frequency><Timestamp dt:dt=""r8"">42343426486</Timestamp><Current dt:dt=""r8"">0</Current><DateUtc dt:dt=""string"">2018-09-04T20:53:38Z</DateUtc></FrequencyChange></FrequencyChanges></Clock>\n"	000_R01_VA_allProc-23-1	60.022	1.0.0.183	1	-605677755	Professional	2.0.10.356	2.0.10.356	09-04-2018	9/4/2018 8:53:39 PM	16:53:39	2.0.10.252	2	0	0	303513	18	303513	3998	-999999	474553	-3	463720	0	Run3Proc	2	1	2	RunList	5	HighLargeED	8000	0	429466	0	429466	0	429466	0	A3HighLargeEDBlockProc	n/a	n/a	n/a	n/a	n/a	n/a	5.0	1.0	5.0	n/a	n/a	n/a	n/a	n/a	n/a	Run3BlockList	5	n/a	n/a	n/a	n/a	n/a	n/a	5.0	1.0	5.0	n/a	n/a	n/a	n/a	n/a	n/a	n/a	n/a	n/a	n/a	n/a	n/a	n/a	n/a	n/a	n/a	n/a	n/a	n/a	n/a	n/a	n/a	n/a	n/a	n/a	n/a	n/a	n/a	n/a	n/a	n/a	n/a	n/a	n/a	n/a	n/a	n/a	n/a	n/a	n/a	n/a	n/a	n/a	n/a	n/a	n/a	n/a	n/a	n/a	n/a	n/a	n/a	n/a	n/a	n/a	n/a	n/a	n/a	n/a	n/a	n/a	n/a	n/a	n/a	n/a	n/a	n/a	n/a	n/a	n/a	n/a	n/a	n/a	n/a	n/a	n/a	n/a	n/a	n/a	n/a	n/a	A3_05.jpg	500	1	425968	-1	425967	0	TrialProc1	A3HighLargeEDBlockList	2500	0	423468	0	423468	-1	423468	2499	d	855	424323	119.957
123	2.5	000_R01_VA_allProc	23	1	"<?xml version=""1.0""?>\n<Clock xmlns:dt=""urn:schemas-microsoft-com:datatypes""><Description dt:dt=""string"">E-Prime Primary Realtime Clock</Description><StartTime><Timestamp dt:dt=""int"">0</Timestamp><DateUtc dt:dt=""string"">2018-09-04T20:53:38Z</DateUtc></StartTime><FrequencyChanges><FrequencyChange><Frequency dt:dt=""r8"">3020400</Frequency><Timestamp dt:dt=""r8"">42343426486</Timestamp><Current dt:dt=""r8"">0</Current><DateUtc dt:dt=""string"">2018-09-04T20:53:38Z</DateUtc></FrequencyChange></FrequencyChanges></Clock>\n"	000_R01_VA_allProc-23-1	60.022	1.0.0.183	1	-605677755	Professional	2.0.10.356	2.0.10.356	09-04-2018	9/4/2018 8:53:39 PM	16:53:39	2.0.10.252	2	0	0	303513	18	303513	3998	-999999	474553	-3	463720	0	Run3Proc	2	1	2	RunList	5	HighLargeED	8000	0	429466	0	429466	0	429466	0	A3HighLargeEDBlockProc	n/a	n/a	n/a	n/a	n/a	n/a	5.0	1.0	5.0	n/a	n/a	n/a	n/a	n/a	n/a	Run3BlockList	6	n/a	n/a	n/a	n/a	n/a	n/a	6.0	1.0	6.0	n/a	n/a	n/a	n/a	n/a	n/a	n/a	n/a	n/a	n/a	n/a	n/a	n/a	n/a	n/a	n/a	n/a	n/a	n/a	n/a	n/a	n/a	n/a	n/a	n/a	n/a	n/a	n/a	n/a	n/a	n/a	n/a	n/a	n/a	n/a	n/a	n/a	n/a	n/a	n/a	n/a	n/a	n/a	n/a	n/a	n/a	n/a	n/a	n/a	n/a	n/a	n/a	n/a	n/a	n/a	n/a	n/a	n/a	n/a	n/a	n/a	n/a	n/a	n/a	n/a	n/a	n/a	n/a	n/a	n/a	n/a	n/a	n/a	n/a	n/a	n/a	n/a	n/a	n/a	n/a	n/a	A3_06.jpg	500	0	428966	-1	428966	0	TrialProc1	A3HighLargeEDBlockList	2500	0	426467	0	426467	0	426467	2499	d	943	427410	122.956
134	2.5	000_R01_VA_allProc	23	1	"<?xml version=""1.0""?>\n<Clock xmlns:dt=""urn:schemas-microsoft-com:datatypes""><Description dt:dt=""string"">E-Prime Primary Realtime Clock</Description><StartTime><Timestamp dt:dt=""int"">0</Timestamp><DateUtc dt:dt=""string"">2018-09-04T20:53:38Z</DateUtc></StartTime><FrequencyChanges><FrequencyChange><Frequency dt:dt=""r8"">3020400</Frequency><Timestamp dt:dt=""r8"">42343426486</Timestamp><Current dt:dt=""r8"">0</Current><DateUtc dt:dt=""string"">2018-09-04T20:53:38Z</DateUtc></FrequencyChange></FrequencyChanges></Clock>\n"	000_R01_VA_allProc-23-1	60.022	1.0.0.183	1	-605677755	Professional	2.0.10.356	2.0.10.356	09-04-2018	9/4/2018 8:53:39 PM	16:53:39	2.0.10.252	2	0	0	303513	18	303513	3998	-999999	474553	-3	463720	0	Run3Proc	2	1	2	RunList	6	LowLargeED	8000	0	455723	0	455723	0	455723	0	C3LowLargeEDBlockProc	n/a	n/a	n/a	n/a	n/a	n/a	6.0	1.0	6.0	n/a	n/a	n/a	n/a	n/a	n/a	Run3BlockList	1	n/a	n/a	n/a	n/a	n/a	n/a	n/a	n/a	n/a	n/a	n/a	n/a	n/a	n/a	n/a	n/a	n/a	n/a	n/a	n/a	n/a	n/a	n/a	n/a	n/a	n/a	n/a	n/a	n/a	n/a	n/a	n/a	n/a	n/a	n/a	n/a	1.0	1.0	1.0	n/a	n/a	n/a	n/a	n/a	n/a	n/a	n/a	n/a	n/a	n/a	n/a	n/a	n/a	n/a	n/a	n/a	n/a	n/a	n/a	n/a	n/a	n/a	n/a	n/a	n/a	n/a	n/a	n/a	n/a	n/a	n/a	n/a	n/a	n/a	n/a	n/a	n/a	n/a	n/a	n/a	n/a	n/a	n/a	n/a	n/a	n/a	n/a	n/a	n/a	n/a	C3_01.jpg	500	0	439962	-1	439962	0	TrialProc1	C3LowLargeEDBlockList	2500	0	437463	0	437463	-3	437463	2499	c	1539	439002	133.952
137	2.5	000_R01_VA_allProc	23	1	"<?xml version=""1.0""?>\n<Clock xmlns:dt=""urn:schemas-microsoft-com:datatypes""><Description dt:dt=""string"">E-Prime Primary Realtime Clock</Description><StartTime><Timestamp dt:dt=""int"">0</Timestamp><DateUtc dt:dt=""string"">2018-09-04T20:53:38Z</DateUtc></StartTime><FrequencyChanges><FrequencyChange><Frequency dt:dt=""r8"">3020400</Frequency><Timestamp dt:dt=""r8"">42343426486</Timestamp><Current dt:dt=""r8"">0</Current><DateUtc dt:dt=""string"">2018-09-04T20:53:38Z</DateUtc></FrequencyChange></FrequencyChanges></Clock>\n"	000_R01_VA_allProc-23-1	60.022	1.0.0.183	1	-605677755	Professional	2.0.10.356	2.0.10.356	09-04-2018	9/4/2018 8:53:39 PM	16:53:39	2.0.10.252	2	0	0	303513	18	303513	3998	-999999	474553	-3	463720	0	Run3Proc	2	1	2	RunList	6	LowLargeED	8000	0	455723	0	455723	0	455723	0	C3LowLargeEDBlockProc	n/a	n/a	n/a	n/a	n/a	n/a	6.0	1.0	6.0	n/a	n/a	n/a	n/a	n/a	n/a	Run3BlockList	2	n/a	n/a	n/a	n/a	n/a	n/a	n/a	n/a	n/a	n/a	n/a	n/a	n/a	n/a	n/a	n/a	n/a	n/a	n/a	n/a	n/a	n/a	n/a	n/a	n/a	n/a	n/a	n/a	n/a	n/a	n/a	n/a	n/a	n/a	n/a	n/a	2.0	1.0	2.0	n/a	n/a	n/a	n/a	n/a	n/a	n/a	n/a	n/a	n/a	n/a	n/a	n/a	n/a	n/a	n/a	n/a	n/a	n/a	n/a	n/a	n/a	n/a	n/a	n/a	n/a	n/a	n/a	n/a	n/a	n/a	n/a	n/a	n/a	n/a	n/a	n/a	n/a	n/a	n/a	n/a	n/a	n/a	n/a	n/a	n/a	n/a	n/a	n/a	n/a	n/a	C3_02.jpg	500	0	442961	-1	442961	0	TrialProc1	C3LowLargeEDBlockList	2500	0	440462	0	440462	0	440462	2499	c	1172	441634	136.951
140	2.5	000_R01_VA_allProc	23	1	"<?xml version=""1.0""?>\n<Clock xmlns:dt=""urn:schemas-microsoft-com:datatypes""><Description dt:dt=""string"">E-Prime Primary Realtime Clock</Description><StartTime><Timestamp dt:dt=""int"">0</Timestamp><DateUtc dt:dt=""string"">2018-09-04T20:53:38Z</DateUtc></StartTime><FrequencyChanges><FrequencyChange><Frequency dt:dt=""r8"">3020400</Frequency><Timestamp dt:dt=""r8"">42343426486</Timestamp><Current dt:dt=""r8"">0</Current><DateUtc dt:dt=""string"">2018-09-04T20:53:38Z</DateUtc></FrequencyChange></FrequencyChanges></Clock>\n"	000_R01_VA_allProc-23-1	60.022	1.0.0.183	1	-605677755	Professional	2.0.10.356	2.0.10.356	09-04-2018	9/4/2018 8:53:39 PM	16:53:39	2.0.10.252	2	0	0	303513	18	303513	3998	-999999	474553	-3	463720	0	Run3Proc	2	1	2	RunList	6	LowLargeED	8000	0	455723	0	455723	0	455723	0	C3LowLargeEDBlockProc	n/a	n/a	n/a	n/a	n/a	n/a	6.0	1.0	6.0	n/a	n/a	n/a	n/a	n/a	n/a	Run3BlockList	3	n/a	n/a	n/a	n/a	n/a	n/a	n/a	n/a	n/a	n/a	n/a	n/a	n/a	n/a	n/a	n/a	n/a	n/a	n/a	n/a	n/a	n/a	n/a	n/a	n/a	n/a	n/a	n/a	n/a	n/a	n/a	n/a	n/a	n/a	n/a	n/a	3.0	1.0	3.0	n/a	n/a	n/a	n/a	n/a	n/a	n/a	n/a	n/a	n/a	n/a	n/a	n/a	n/a	n/a	n/a	n/a	n/a	n/a	n/a	n/a	n/a	n/a	n/a	n/a	n/a	n/a	n/a	n/a	n/a	n/a	n/a	n/a	n/a	n/a	n/a	n/a	n/a	n/a	n/a	n/a	n/a	n/a	n/a	n/a	n/a	n/a	n/a	n/a	n/a	n/a	C3_03.jpg	500	0	446227	-1	446227	0	TrialProc1	C3LowLargeEDBlockList	2500	0	443728	0	443728	267	443728	2499	c	890	444618	140.217
143	2.5	000_R01_VA_allProc	23	1	"<?xml version=""1.0""?>\n<Clock xmlns:dt=""urn:schemas-microsoft-com:datatypes""><Description dt:dt=""string"">E-Prime Primary Realtime Clock</Description><StartTime><Timestamp dt:dt=""int"">0</Timestamp><DateUtc dt:dt=""string"">2018-09-04T20:53:38Z</DateUtc></StartTime><FrequencyChanges><FrequencyChange><Frequency dt:dt=""r8"">3020400</Frequency><Timestamp dt:dt=""r8"">42343426486</Timestamp><Current dt:dt=""r8"">0</Current><DateUtc dt:dt=""string"">2018-09-04T20:53:38Z</DateUtc></FrequencyChange></FrequencyChanges></Clock>\n"	000_R01_VA_allProc-23-1	60.022	1.0.0.183	1	-605677755	Professional	2.0.10.356	2.0.10.356	09-04-2018	9/4/2018 8:53:39 PM	16:53:39	2.0.10.252	2	0	0	303513	18	303513	3998	-999999	474553	-3	463720	0	Run3Proc	2	1	2	RunList	6	LowLargeED	8000	0	455723	0	455723	0	455723	0	C3LowLargeEDBlockProc	n/a	n/a	n/a	n/a	n/a	n/a	6.0	1.0	6.0	n/a	n/a	n/a	n/a	n/a	n/a	Run3BlockList	4	n/a	n/a	n/a	n/a	n/a	n/a	n/a	n/a	n/a	n/a	n/a	n/a	n/a	n/a	n/a	n/a	n/a	n/a	n/a	n/a	n/a	n/a	n/a	n/a	n/a	n/a	n/a	n/a	n/a	n/a	n/a	n/a	n/a	n/a	n/a	n/a	4.0	1.0	4.0	n/a	n/a	n/a	n/a	n/a	n/a	n/a	n/a	n/a	n/a	n/a	n/a	n/a	n/a	n/a	n/a	n/a	n/a	n/a	n/a	n/a	n/a	n/a	n/a	n/a	n/a	n/a	n/a	n/a	n/a	n/a	n/a	n/a	n/a	n/a	n/a	n/a	n/a	n/a	n/a	n/a	n/a	n/a	n/a	n/a	n/a	n/a	n/a	n/a	n/a	n/a	C3_04.jpg	500	0	449226	0	449226	0	TrialProc1	C3LowLargeEDBlockList	2500	1	446727	1	446727	-1	446726	2500	d	1324	448050	143.215
146	2.5	000_R01_VA_allProc	23	1	"<?xml version=""1.0""?>\n<Clock xmlns:dt=""urn:schemas-microsoft-com:datatypes""><Description dt:dt=""string"">E-Prime Primary Realtime Clock</Description><StartTime><Timestamp dt:dt=""int"">0</Timestamp><DateUtc dt:dt=""string"">2018-09-04T20:53:38Z</DateUtc></StartTime><FrequencyChanges><FrequencyChange><Frequency dt:dt=""r8"">3020400</Frequency><Timestamp dt:dt=""r8"">42343426486</Timestamp><Current dt:dt=""r8"">0</Current><DateUtc dt:dt=""string"">2018-09-04T20:53:38Z</DateUtc></FrequencyChange></FrequencyChanges></Clock>\n"	000_R01_VA_allProc-23-1	60.022	1.0.0.183	1	-605677755	Professional	2.0.10.356	2.0.10.356	09-04-2018	9/4/2018 8:53:39 PM	16:53:39	2.0.10.252	2	0	0	303513	18	303513	3998	-999999	474553	-3	463720	0	Run3Proc	2	1	2	RunList	6	LowLargeED	8000	0	455723	0	455723	0	455723	0	C3LowLargeEDBlockProc	n/a	n/a	n/a	n/a	n/a	n/a	6.0	1.0	6.0	n/a	n/a	n/a	n/a	n/a	n/a	Run3BlockList	5	n/a	n/a	n/a	n/a	n/a	n/a	n/a	n/a	n/a	n/a	n/a	n/a	n/a	n/a	n/a	n/a	n/a	n/a	n/a	n/a	n/a	n/a	n/a	n/a	n/a	n/a	n/a	n/a	n/a	n/a	n/a	n/a	n/a	n/a	n/a	n/a	5.0	1.0	5.0	n/a	n/a	n/a	n/a	n/a	n/a	n/a	n/a	n/a	n/a	n/a	n/a	n/a	n/a	n/a	n/a	n/a	n/a	n/a	n/a	n/a	n/a	n/a	n/a	n/a	n/a	n/a	n/a	n/a	n/a	n/a	n/a	n/a	n/a	n/a	n/a	n/a	n/a	n/a	n/a	n/a	n/a	n/a	n/a	n/a	n/a	n/a	n/a	n/a	n/a	n/a	C3_05.jpg	500	1	452225	-1	452224	0	TrialProc1	C3LowLargeEDBlockList	2500	0	449725	0	449725	-1	449725	2499	d	2213	451938	146.214
149	2.5	000_R01_VA_allProc	23	1	"<?xml version=""1.0""?>\n<Clock xmlns:dt=""urn:schemas-microsoft-com:datatypes""><Description dt:dt=""string"">E-Prime Primary Realtime Clock</Description><StartTime><Timestamp dt:dt=""int"">0</Timestamp><DateUtc dt:dt=""string"">2018-09-04T20:53:38Z</DateUtc></StartTime><FrequencyChanges><FrequencyChange><Frequency dt:dt=""r8"">3020400</Frequency><Timestamp dt:dt=""r8"">42343426486</Timestamp><Current dt:dt=""r8"">0</Current><DateUtc dt:dt=""string"">2018-09-04T20:53:38Z</DateUtc></FrequencyChange></FrequencyChanges></Clock>\n"	000_R01_VA_allProc-23-1	60.022	1.0.0.183	1	-605677755	Professional	2.0.10.356	2.0.10.356	09-04-2018	9/4/2018 8:53:39 PM	16:53:39	2.0.10.252	2	0	0	303513	18	303513	3998	-999999	474553	-3	463720	0	Run3Proc	2	1	2	RunList	6	LowLargeED	8000	0	455723	0	455723	0	455723	0	C3LowLargeEDBlockProc	n/a	n/a	n/a	n/a	n/a	n/a	6.0	1.0	6.0	n/a	n/a	n/a	n/a	n/a	n/a	Run3BlockList	6	n/a	n/a	n/a	n/a	n/a	n/a	n/a	n/a	n/a	n/a	n/a	n/a	n/a	n/a	n/a	n/a	n/a	n/a	n/a	n/a	n/a	n/a	n/a	n/a	n/a	n/a	n/a	n/a	n/a	n/a	n/a	n/a	n/a	n/a	n/a	n/a	6.0	1.0	6.0	n/a	n/a	n/a	n/a	n/a	n/a	n/a	n/a	n/a	n/a	n/a	n/a	n/a	n/a	n/a	n/a	n/a	n/a	n/a	n/a	n/a	n/a	n/a	n/a	n/a	n/a	n/a	n/a	n/a	n/a	n/a	n/a	n/a	n/a	n/a	n/a	n/a	n/a	n/a	n/a	n/a	n/a	n/a	n/a	n/a	n/a	n/a	n/a	n/a	n/a	n/a	C3_06.jpg	500	1	455224	-1	455223	0	TrialProc1	C3LowLargeEDBlockList	2500	0	452724	0	452724	0	452724	2499	c	2446	455170	149.213
