onset	duration	experiment_name	sub	ses	clock_information	datafile_basename	display_refreshrate	experiment_version	group	randomseed	runtime_capabilities	runtime_version	runtimeversionexpected	session_date	session_start_date_time_utc	session_time	studio_version	block	fixation2trs_durationerror	fixation2trs_offsetdelay	fixation2trs_offsettime	fixation2trs_onsetdelay	fixation2trs_onsettime	fixation2trs_onsettoonsettime	goodwork_durationerror	goodwork_finishtime	goodwork_onsetdelay	goodwork_onsettime	goodwork_onsettoonsettime	procedure_block	runlist	runlist_cycle	runlist_sample	running_block	trial	condition	interblockinterval_duration	interblockinterval_durationerror	interblockinterval_finishtime	interblockinterval_offsetdelay	interblockinterval_offsettime	interblockinterval_onsetdelay	interblockinterval_onsettime	interblockinterval_onsettoonsettime	procedure_trial	run1blocklist	run1blocklist_cycle	run1blocklist_sample	run2blocklist	run2blocklist_cycle	run2blocklist_sample	run3blocklist	run3blocklist_cycle	run3blocklist_sample	run4blocklist	run4blocklist_cycle	run4blocklist_sample	run5blocklist	run5blocklist_cycle	run5blocklist_sample	running_trial	subtrial	a1highlargeedblocklist	a1highlargeedblocklist_cycle	a1highlargeedblocklist_sample	a2highlargeedblocklist	a2highlargeedblocklist_cycle	a2highlargeedblocklist_sample	a3highlargeedblocklist	a3highlargeedblocklist_cycle	a3highlargeedblocklist_sample	a4highlargeedblocklist	a4highlargeedblocklist_cycle	a4highlargeedblocklist_sample	a5highlargeedblocklist	a5highlargeedblocklist_cycle	a5highlargeedblocklist_sample	b1highsmalledblocklist	b1highsmalledblocklist_cycle	b1highsmalledblocklist_sample	b2highsmalledblocklist	b2highsmalledblocklist_cycle	b2highsmalledblocklist_sample	b3highsmalledblocklist	b3highsmalledblocklist_cycle	b3highsmalledblocklist_sample	b4highsmalledblocklist	b4highsmalledblocklist_cycle	b4highsmalledblocklist_sample	b5highsmalledblocklist	b5highsmalledblocklist_cycle	b5highsmalledblocklist_sample	c1lowlargeedblocklist	c1lowlargeedblocklist_cycle	c1lowlargeedblocklist_sample	c2lowlargeedblocklist	c2lowlargeedblocklist_cycle	c2lowlargeedblocklist_sample	c3lowlargeedblocklist	c3lowlargeedblocklist_cycle	c3lowlargeedblocklist_sample	c4lowlargeedblocklist	c4lowlargeedblocklist_cycle	c4lowlargeedblocklist_sample	c5lowlargeedblocklist	c5lowlargeedblocklist_cycle	c5lowlargeedblocklist_sample	d1lowsmalledblocklist	d1lowsmalledblocklist_cycle	d1lowsmalledblocklist_sample	d2highlargeedblocklist	d2highlargeedblocklist_cycle	d2highlargeedblocklist_sample	d3lowsmalledblocklist	d3lowsmalledblocklist_cycle	d3lowsmalledblocklist_sample	d4lowsmalledblocklist	d4lowsmalledblocklist_cycle	d4lowsmalledblocklist_sample	d5lowsmalledblocklist	d5lowsmalledblocklist_cycle	d5lowsmalledblocklist_sample	e1officelargeblocklist	e1officelargeblocklist_cycle	e1officelargeblocklist_sample	e2officelargeblocklist	e2officelargeblocklist_cycle	e2officelargeblocklist_sample	e3officelargeblocklist	e3officelargeblocklist_cycle	e3officelargeblocklist_sample	e4officelargeblocklist	e4officelargeblocklist_cycle	e4officelargeblocklist_sample	e5officelargeblocklist	e5officelargeblocklist_cycle	e5officelargeblocklist_sample	f1officesmallblocklist	f1officesmallblocklist_cycle	f1officesmallblocklist_sample	f2officesmallblocklist	f2officesmallblocklist_cycle	f2officesmallblocklist_sample	f3officesmallblocklist	f3officesmallblocklist_cycle	f3officesmallblocklist_sample	f4officesmallblocklist	f4officesmallblocklist_cycle	f4officesmallblocklist_sample	f5officesmallblocklist	f5officesmallblocklist_cycle	f5officesmallblocklist_sample	filename	isi_duration	isi_durationerror	isi_finishtime	isi_onsetdelay	isi_onsettime	isi_onsettoonsettime	procedure_subtrial	running_subtrial	stimslide_duration	stimslide_durationerror	stimslide_finishtime	stimslide_offsetdelay	stimslide_offsettime	stimslide_onsetdelay	stimslide_onsettime	stimslide_onsettoonsettime	stimslide_resp	stimslide_rt	stimslide_rttime	onset_unrounded
4	2.5	000_R01_VB_allProc	28	1	"<?xml version=""1.0""?>\n<Clock xmlns:dt=""urn:schemas-microsoft-com:datatypes""><Description dt:dt=""string"">E-Prime Primary Realtime Clock</Description><StartTime><Timestamp dt:dt=""int"">0</Timestamp><DateUtc dt:dt=""string"">2018-08-28T22:27:52Z</DateUtc></StartTime><FrequencyChanges><FrequencyChange><Frequency dt:dt=""r8"">3020410</Frequency><Timestamp dt:dt=""r8"">4048714613</Timestamp><Current dt:dt=""r8"">0</Current><DateUtc dt:dt=""string"">2018-08-28T22:27:52Z</DateUtc></FrequencyChange></FrequencyChanges></Clock>\n"	000_R01_VB_allProc-28-1	60.022	1.0.0.185	1	-245653510	Professional	2.0.10.356	2.0.10.356	08-28-2018	n/a	18:27:52	2.0.10.252	4	0	0	664244	16	664244	3998	-999999	841786	-3	824184	0	Run3Proc	4	1	4	RunList	1	LowSmallED	8000	0	686236	0	686236	0	686236	0	D3LowSmallEDBlockProc	n/a	n/a	n/a	n/a	n/a	n/a	1.0	1.0	1.0	n/a	n/a	n/a	n/a	n/a	n/a	Run3BlockList	1	n/a	n/a	n/a	n/a	n/a	n/a	n/a	n/a	n/a	n/a	n/a	n/a	n/a	n/a	n/a	n/a	n/a	n/a	n/a	n/a	n/a	n/a	n/a	n/a	n/a	n/a	n/a	n/a	n/a	n/a	n/a	n/a	n/a	n/a	n/a	n/a	n/a	n/a	n/a	n/a	n/a	n/a	n/a	n/a	n/a	n/a	n/a	n/a	n/a	n/a	n/a	1.0	1.0	1.0	n/a	n/a	n/a	n/a	n/a	n/a	n/a	n/a	n/a	n/a	n/a	n/a	n/a	n/a	n/a	n/a	n/a	n/a	n/a	n/a	n/a	n/a	n/a	n/a	n/a	n/a	n/a	n/a	n/a	n/a	n/a	n/a	n/a	n/a	n/a	n/a	D3_01.jpg	500	0	670741	-1	670741	0	TrialProc1	D3LowSmallEDBlockList	2500	0	668242	0	668242	-2	668242	2499	d	732	668974	4.0
7	2.5	000_R01_VB_allProc	28	1	"<?xml version=""1.0""?>\n<Clock xmlns:dt=""urn:schemas-microsoft-com:datatypes""><Description dt:dt=""string"">E-Prime Primary Realtime Clock</Description><StartTime><Timestamp dt:dt=""int"">0</Timestamp><DateUtc dt:dt=""string"">2018-08-28T22:27:52Z</DateUtc></StartTime><FrequencyChanges><FrequencyChange><Frequency dt:dt=""r8"">3020410</Frequency><Timestamp dt:dt=""r8"">4048714613</Timestamp><Current dt:dt=""r8"">0</Current><DateUtc dt:dt=""string"">2018-08-28T22:27:52Z</DateUtc></FrequencyChange></FrequencyChanges></Clock>\n"	000_R01_VB_allProc-28-1	60.022	1.0.0.185	1	-245653510	Professional	2.0.10.356	2.0.10.356	08-28-2018	n/a	18:27:52	2.0.10.252	4	0	0	664244	16	664244	3998	-999999	841786	-3	824184	0	Run3Proc	4	1	4	RunList	1	LowSmallED	8000	0	686236	0	686236	0	686236	0	D3LowSmallEDBlockProc	n/a	n/a	n/a	n/a	n/a	n/a	1.0	1.0	1.0	n/a	n/a	n/a	n/a	n/a	n/a	Run3BlockList	2	n/a	n/a	n/a	n/a	n/a	n/a	n/a	n/a	n/a	n/a	n/a	n/a	n/a	n/a	n/a	n/a	n/a	n/a	n/a	n/a	n/a	n/a	n/a	n/a	n/a	n/a	n/a	n/a	n/a	n/a	n/a	n/a	n/a	n/a	n/a	n/a	n/a	n/a	n/a	n/a	n/a	n/a	n/a	n/a	n/a	n/a	n/a	n/a	n/a	n/a	n/a	2.0	1.0	2.0	n/a	n/a	n/a	n/a	n/a	n/a	n/a	n/a	n/a	n/a	n/a	n/a	n/a	n/a	n/a	n/a	n/a	n/a	n/a	n/a	n/a	n/a	n/a	n/a	n/a	n/a	n/a	n/a	n/a	n/a	n/a	n/a	n/a	n/a	n/a	n/a	D3_02.jpg	500	0	673740	-1	673740	0	TrialProc1	D3LowSmallEDBlockList	2500	0	671241	0	671241	0	671241	2499	d	461	671702	6.9990000000000006
10	2.5	000_R01_VB_allProc	28	1	"<?xml version=""1.0""?>\n<Clock xmlns:dt=""urn:schemas-microsoft-com:datatypes""><Description dt:dt=""string"">E-Prime Primary Realtime Clock</Description><StartTime><Timestamp dt:dt=""int"">0</Timestamp><DateUtc dt:dt=""string"">2018-08-28T22:27:52Z</DateUtc></StartTime><FrequencyChanges><FrequencyChange><Frequency dt:dt=""r8"">3020410</Frequency><Timestamp dt:dt=""r8"">4048714613</Timestamp><Current dt:dt=""r8"">0</Current><DateUtc dt:dt=""string"">2018-08-28T22:27:52Z</DateUtc></FrequencyChange></FrequencyChanges></Clock>\n"	000_R01_VB_allProc-28-1	60.022	1.0.0.185	1	-245653510	Professional	2.0.10.356	2.0.10.356	08-28-2018	n/a	18:27:52	2.0.10.252	4	0	0	664244	16	664244	3998	-999999	841786	-3	824184	0	Run3Proc	4	1	4	RunList	1	LowSmallED	8000	0	686236	0	686236	0	686236	0	D3LowSmallEDBlockProc	n/a	n/a	n/a	n/a	n/a	n/a	1.0	1.0	1.0	n/a	n/a	n/a	n/a	n/a	n/a	Run3BlockList	3	n/a	n/a	n/a	n/a	n/a	n/a	n/a	n/a	n/a	n/a	n/a	n/a	n/a	n/a	n/a	n/a	n/a	n/a	n/a	n/a	n/a	n/a	n/a	n/a	n/a	n/a	n/a	n/a	n/a	n/a	n/a	n/a	n/a	n/a	n/a	n/a	n/a	n/a	n/a	n/a	n/a	n/a	n/a	n/a	n/a	n/a	n/a	n/a	n/a	n/a	n/a	3.0	1.0	3.0	n/a	n/a	n/a	n/a	n/a	n/a	n/a	n/a	n/a	n/a	n/a	n/a	n/a	n/a	n/a	n/a	n/a	n/a	n/a	n/a	n/a	n/a	n/a	n/a	n/a	n/a	n/a	n/a	n/a	n/a	n/a	n/a	n/a	n/a	n/a	n/a	D3_03.jpg	500	0	676739	-1	676739	0	TrialProc1	D3LowSmallEDBlockList	2500	0	674240	0	674240	0	674240	2499	d	534	674774	9.998000000000001
13	2.5	000_R01_VB_allProc	28	1	"<?xml version=""1.0""?>\n<Clock xmlns:dt=""urn:schemas-microsoft-com:datatypes""><Description dt:dt=""string"">E-Prime Primary Realtime Clock</Description><StartTime><Timestamp dt:dt=""int"">0</Timestamp><DateUtc dt:dt=""string"">2018-08-28T22:27:52Z</DateUtc></StartTime><FrequencyChanges><FrequencyChange><Frequency dt:dt=""r8"">3020410</Frequency><Timestamp dt:dt=""r8"">4048714613</Timestamp><Current dt:dt=""r8"">0</Current><DateUtc dt:dt=""string"">2018-08-28T22:27:52Z</DateUtc></FrequencyChange></FrequencyChanges></Clock>\n"	000_R01_VB_allProc-28-1	60.022	1.0.0.185	1	-245653510	Professional	2.0.10.356	2.0.10.356	08-28-2018	n/a	18:27:52	2.0.10.252	4	0	0	664244	16	664244	3998	-999999	841786	-3	824184	0	Run3Proc	4	1	4	RunList	1	LowSmallED	8000	0	686236	0	686236	0	686236	0	D3LowSmallEDBlockProc	n/a	n/a	n/a	n/a	n/a	n/a	1.0	1.0	1.0	n/a	n/a	n/a	n/a	n/a	n/a	Run3BlockList	4	n/a	n/a	n/a	n/a	n/a	n/a	n/a	n/a	n/a	n/a	n/a	n/a	n/a	n/a	n/a	n/a	n/a	n/a	n/a	n/a	n/a	n/a	n/a	n/a	n/a	n/a	n/a	n/a	n/a	n/a	n/a	n/a	n/a	n/a	n/a	n/a	n/a	n/a	n/a	n/a	n/a	n/a	n/a	n/a	n/a	n/a	n/a	n/a	n/a	n/a	n/a	4.0	1.0	4.0	n/a	n/a	n/a	n/a	n/a	n/a	n/a	n/a	n/a	n/a	n/a	n/a	n/a	n/a	n/a	n/a	n/a	n/a	n/a	n/a	n/a	n/a	n/a	n/a	n/a	n/a	n/a	n/a	n/a	n/a	n/a	n/a	n/a	n/a	n/a	n/a	D3_04.jpg	500	0	679738	-1	679738	0	TrialProc1	D3LowSmallEDBlockList	2500	0	677239	0	677239	0	677239	2499	d	671	677910	12.997
16	2.5	000_R01_VB_allProc	28	1	"<?xml version=""1.0""?>\n<Clock xmlns:dt=""urn:schemas-microsoft-com:datatypes""><Description dt:dt=""string"">E-Prime Primary Realtime Clock</Description><StartTime><Timestamp dt:dt=""int"">0</Timestamp><DateUtc dt:dt=""string"">2018-08-28T22:27:52Z</DateUtc></StartTime><FrequencyChanges><FrequencyChange><Frequency dt:dt=""r8"">3020410</Frequency><Timestamp dt:dt=""r8"">4048714613</Timestamp><Current dt:dt=""r8"">0</Current><DateUtc dt:dt=""string"">2018-08-28T22:27:52Z</DateUtc></FrequencyChange></FrequencyChanges></Clock>\n"	000_R01_VB_allProc-28-1	60.022	1.0.0.185	1	-245653510	Professional	2.0.10.356	2.0.10.356	08-28-2018	n/a	18:27:52	2.0.10.252	4	0	0	664244	16	664244	3998	-999999	841786	-3	824184	0	Run3Proc	4	1	4	RunList	1	LowSmallED	8000	0	686236	0	686236	0	686236	0	D3LowSmallEDBlockProc	n/a	n/a	n/a	n/a	n/a	n/a	1.0	1.0	1.0	n/a	n/a	n/a	n/a	n/a	n/a	Run3BlockList	5	n/a	n/a	n/a	n/a	n/a	n/a	n/a	n/a	n/a	n/a	n/a	n/a	n/a	n/a	n/a	n/a	n/a	n/a	n/a	n/a	n/a	n/a	n/a	n/a	n/a	n/a	n/a	n/a	n/a	n/a	n/a	n/a	n/a	n/a	n/a	n/a	n/a	n/a	n/a	n/a	n/a	n/a	n/a	n/a	n/a	n/a	n/a	n/a	n/a	n/a	n/a	5.0	1.0	5.0	n/a	n/a	n/a	n/a	n/a	n/a	n/a	n/a	n/a	n/a	n/a	n/a	n/a	n/a	n/a	n/a	n/a	n/a	n/a	n/a	n/a	n/a	n/a	n/a	n/a	n/a	n/a	n/a	n/a	n/a	n/a	n/a	n/a	n/a	n/a	n/a	D3_05.jpg	500	0	682737	-1	682737	0	TrialProc1	D3LowSmallEDBlockList	2500	0	680238	0	680238	0	680238	2499	d	720	680958	15.996
19	2.5	000_R01_VB_allProc	28	1	"<?xml version=""1.0""?>\n<Clock xmlns:dt=""urn:schemas-microsoft-com:datatypes""><Description dt:dt=""string"">E-Prime Primary Realtime Clock</Description><StartTime><Timestamp dt:dt=""int"">0</Timestamp><DateUtc dt:dt=""string"">2018-08-28T22:27:52Z</DateUtc></StartTime><FrequencyChanges><FrequencyChange><Frequency dt:dt=""r8"">3020410</Frequency><Timestamp dt:dt=""r8"">4048714613</Timestamp><Current dt:dt=""r8"">0</Current><DateUtc dt:dt=""string"">2018-08-28T22:27:52Z</DateUtc></FrequencyChange></FrequencyChanges></Clock>\n"	000_R01_VB_allProc-28-1	60.022	1.0.0.185	1	-245653510	Professional	2.0.10.356	2.0.10.356	08-28-2018	n/a	18:27:52	2.0.10.252	4	0	0	664244	16	664244	3998	-999999	841786	-3	824184	0	Run3Proc	4	1	4	RunList	1	LowSmallED	8000	0	686236	0	686236	0	686236	0	D3LowSmallEDBlockProc	n/a	n/a	n/a	n/a	n/a	n/a	1.0	1.0	1.0	n/a	n/a	n/a	n/a	n/a	n/a	Run3BlockList	6	n/a	n/a	n/a	n/a	n/a	n/a	n/a	n/a	n/a	n/a	n/a	n/a	n/a	n/a	n/a	n/a	n/a	n/a	n/a	n/a	n/a	n/a	n/a	n/a	n/a	n/a	n/a	n/a	n/a	n/a	n/a	n/a	n/a	n/a	n/a	n/a	n/a	n/a	n/a	n/a	n/a	n/a	n/a	n/a	n/a	n/a	n/a	n/a	n/a	n/a	n/a	6.0	1.0	6.0	n/a	n/a	n/a	n/a	n/a	n/a	n/a	n/a	n/a	n/a	n/a	n/a	n/a	n/a	n/a	n/a	n/a	n/a	n/a	n/a	n/a	n/a	n/a	n/a	n/a	n/a	n/a	n/a	n/a	n/a	n/a	n/a	n/a	n/a	n/a	n/a	D3_06.jpg	500	0	685736	-1	685736	0	TrialProc1	D3LowSmallEDBlockList	2500	0	683237	0	683237	0	683237	2499	d	1345	684582	18.994999999999997
30	2.5	000_R01_VB_allProc	28	1	"<?xml version=""1.0""?>\n<Clock xmlns:dt=""urn:schemas-microsoft-com:datatypes""><Description dt:dt=""string"">E-Prime Primary Realtime Clock</Description><StartTime><Timestamp dt:dt=""int"">0</Timestamp><DateUtc dt:dt=""string"">2018-08-28T22:27:52Z</DateUtc></StartTime><FrequencyChanges><FrequencyChange><Frequency dt:dt=""r8"">3020410</Frequency><Timestamp dt:dt=""r8"">4048714613</Timestamp><Current dt:dt=""r8"">0</Current><DateUtc dt:dt=""string"">2018-08-28T22:27:52Z</DateUtc></FrequencyChange></FrequencyChanges></Clock>\n"	000_R01_VB_allProc-28-1	60.022	1.0.0.185	1	-245653510	Professional	2.0.10.356	2.0.10.356	08-28-2018	n/a	18:27:52	2.0.10.252	4	0	0	664244	16	664244	3998	-999999	841786	-3	824184	0	Run3Proc	4	1	4	RunList	2	OfficeLarge	8000	0	712226	0	712226	0	712226	0	E3OfficeLargeBlockProc	n/a	n/a	n/a	n/a	n/a	n/a	2.0	1.0	2.0	n/a	n/a	n/a	n/a	n/a	n/a	Run3BlockList	1	n/a	n/a	n/a	n/a	n/a	n/a	n/a	n/a	n/a	n/a	n/a	n/a	n/a	n/a	n/a	n/a	n/a	n/a	n/a	n/a	n/a	n/a	n/a	n/a	n/a	n/a	n/a	n/a	n/a	n/a	n/a	n/a	n/a	n/a	n/a	n/a	n/a	n/a	n/a	n/a	n/a	n/a	n/a	n/a	n/a	n/a	n/a	n/a	n/a	n/a	n/a	n/a	n/a	n/a	n/a	n/a	n/a	n/a	n/a	n/a	n/a	n/a	n/a	n/a	n/a	n/a	1.0	1.0	1.0	n/a	n/a	n/a	n/a	n/a	n/a	n/a	n/a	n/a	n/a	n/a	n/a	n/a	n/a	n/a	n/a	n/a	n/a	n/a	n/a	n/a	E3_01.jpg	500	0	696732	-1	696732	0	TrialProc1	E3OfficeLargeBlockList	2500	0	694233	0	694233	-3	694233	2499	n/a	0	0	29.991
33	2.5	000_R01_VB_allProc	28	1	"<?xml version=""1.0""?>\n<Clock xmlns:dt=""urn:schemas-microsoft-com:datatypes""><Description dt:dt=""string"">E-Prime Primary Realtime Clock</Description><StartTime><Timestamp dt:dt=""int"">0</Timestamp><DateUtc dt:dt=""string"">2018-08-28T22:27:52Z</DateUtc></StartTime><FrequencyChanges><FrequencyChange><Frequency dt:dt=""r8"">3020410</Frequency><Timestamp dt:dt=""r8"">4048714613</Timestamp><Current dt:dt=""r8"">0</Current><DateUtc dt:dt=""string"">2018-08-28T22:27:52Z</DateUtc></FrequencyChange></FrequencyChanges></Clock>\n"	000_R01_VB_allProc-28-1	60.022	1.0.0.185	1	-245653510	Professional	2.0.10.356	2.0.10.356	08-28-2018	n/a	18:27:52	2.0.10.252	4	0	0	664244	16	664244	3998	-999999	841786	-3	824184	0	Run3Proc	4	1	4	RunList	2	OfficeLarge	8000	0	712226	0	712226	0	712226	0	E3OfficeLargeBlockProc	n/a	n/a	n/a	n/a	n/a	n/a	2.0	1.0	2.0	n/a	n/a	n/a	n/a	n/a	n/a	Run3BlockList	2	n/a	n/a	n/a	n/a	n/a	n/a	n/a	n/a	n/a	n/a	n/a	n/a	n/a	n/a	n/a	n/a	n/a	n/a	n/a	n/a	n/a	n/a	n/a	n/a	n/a	n/a	n/a	n/a	n/a	n/a	n/a	n/a	n/a	n/a	n/a	n/a	n/a	n/a	n/a	n/a	n/a	n/a	n/a	n/a	n/a	n/a	n/a	n/a	n/a	n/a	n/a	n/a	n/a	n/a	n/a	n/a	n/a	n/a	n/a	n/a	n/a	n/a	n/a	n/a	n/a	n/a	2.0	1.0	2.0	n/a	n/a	n/a	n/a	n/a	n/a	n/a	n/a	n/a	n/a	n/a	n/a	n/a	n/a	n/a	n/a	n/a	n/a	n/a	n/a	n/a	E3_02.jpg	500	1	699731	-1	699730	0	TrialProc1	E3OfficeLargeBlockList	2500	0	697231	0	697231	-1	697231	2499	n/a	0	0	32.989000000000004
36	2.5	000_R01_VB_allProc	28	1	"<?xml version=""1.0""?>\n<Clock xmlns:dt=""urn:schemas-microsoft-com:datatypes""><Description dt:dt=""string"">E-Prime Primary Realtime Clock</Description><StartTime><Timestamp dt:dt=""int"">0</Timestamp><DateUtc dt:dt=""string"">2018-08-28T22:27:52Z</DateUtc></StartTime><FrequencyChanges><FrequencyChange><Frequency dt:dt=""r8"">3020410</Frequency><Timestamp dt:dt=""r8"">4048714613</Timestamp><Current dt:dt=""r8"">0</Current><DateUtc dt:dt=""string"">2018-08-28T22:27:52Z</DateUtc></FrequencyChange></FrequencyChanges></Clock>\n"	000_R01_VB_allProc-28-1	60.022	1.0.0.185	1	-245653510	Professional	2.0.10.356	2.0.10.356	08-28-2018	n/a	18:27:52	2.0.10.252	4	0	0	664244	16	664244	3998	-999999	841786	-3	824184	0	Run3Proc	4	1	4	RunList	2	OfficeLarge	8000	0	712226	0	712226	0	712226	0	E3OfficeLargeBlockProc	n/a	n/a	n/a	n/a	n/a	n/a	2.0	1.0	2.0	n/a	n/a	n/a	n/a	n/a	n/a	Run3BlockList	3	n/a	n/a	n/a	n/a	n/a	n/a	n/a	n/a	n/a	n/a	n/a	n/a	n/a	n/a	n/a	n/a	n/a	n/a	n/a	n/a	n/a	n/a	n/a	n/a	n/a	n/a	n/a	n/a	n/a	n/a	n/a	n/a	n/a	n/a	n/a	n/a	n/a	n/a	n/a	n/a	n/a	n/a	n/a	n/a	n/a	n/a	n/a	n/a	n/a	n/a	n/a	n/a	n/a	n/a	n/a	n/a	n/a	n/a	n/a	n/a	n/a	n/a	n/a	n/a	n/a	n/a	3.0	1.0	3.0	n/a	n/a	n/a	n/a	n/a	n/a	n/a	n/a	n/a	n/a	n/a	n/a	n/a	n/a	n/a	n/a	n/a	n/a	n/a	n/a	n/a	E3_03.jpg	500	0	702729	-1	702729	0	TrialProc1	E3OfficeLargeBlockList	2500	0	700230	0	700230	0	700230	2499	n/a	0	0	35.988
39	2.5	000_R01_VB_allProc	28	1	"<?xml version=""1.0""?>\n<Clock xmlns:dt=""urn:schemas-microsoft-com:datatypes""><Description dt:dt=""string"">E-Prime Primary Realtime Clock</Description><StartTime><Timestamp dt:dt=""int"">0</Timestamp><DateUtc dt:dt=""string"">2018-08-28T22:27:52Z</DateUtc></StartTime><FrequencyChanges><FrequencyChange><Frequency dt:dt=""r8"">3020410</Frequency><Timestamp dt:dt=""r8"">4048714613</Timestamp><Current dt:dt=""r8"">0</Current><DateUtc dt:dt=""string"">2018-08-28T22:27:52Z</DateUtc></FrequencyChange></FrequencyChanges></Clock>\n"	000_R01_VB_allProc-28-1	60.022	1.0.0.185	1	-245653510	Professional	2.0.10.356	2.0.10.356	08-28-2018	n/a	18:27:52	2.0.10.252	4	0	0	664244	16	664244	3998	-999999	841786	-3	824184	0	Run3Proc	4	1	4	RunList	2	OfficeLarge	8000	0	712226	0	712226	0	712226	0	E3OfficeLargeBlockProc	n/a	n/a	n/a	n/a	n/a	n/a	2.0	1.0	2.0	n/a	n/a	n/a	n/a	n/a	n/a	Run3BlockList	4	n/a	n/a	n/a	n/a	n/a	n/a	n/a	n/a	n/a	n/a	n/a	n/a	n/a	n/a	n/a	n/a	n/a	n/a	n/a	n/a	n/a	n/a	n/a	n/a	n/a	n/a	n/a	n/a	n/a	n/a	n/a	n/a	n/a	n/a	n/a	n/a	n/a	n/a	n/a	n/a	n/a	n/a	n/a	n/a	n/a	n/a	n/a	n/a	n/a	n/a	n/a	n/a	n/a	n/a	n/a	n/a	n/a	n/a	n/a	n/a	n/a	n/a	n/a	n/a	n/a	n/a	4.0	1.0	4.0	n/a	n/a	n/a	n/a	n/a	n/a	n/a	n/a	n/a	n/a	n/a	n/a	n/a	n/a	n/a	n/a	n/a	n/a	n/a	n/a	n/a	E3_04.jpg	500	0	705728	-1	705728	0	TrialProc1	E3OfficeLargeBlockList	2500	0	703229	0	703229	0	703229	2499	n/a	0	0	38.987
42	2.5	000_R01_VB_allProc	28	1	"<?xml version=""1.0""?>\n<Clock xmlns:dt=""urn:schemas-microsoft-com:datatypes""><Description dt:dt=""string"">E-Prime Primary Realtime Clock</Description><StartTime><Timestamp dt:dt=""int"">0</Timestamp><DateUtc dt:dt=""string"">2018-08-28T22:27:52Z</DateUtc></StartTime><FrequencyChanges><FrequencyChange><Frequency dt:dt=""r8"">3020410</Frequency><Timestamp dt:dt=""r8"">4048714613</Timestamp><Current dt:dt=""r8"">0</Current><DateUtc dt:dt=""string"">2018-08-28T22:27:52Z</DateUtc></FrequencyChange></FrequencyChanges></Clock>\n"	000_R01_VB_allProc-28-1	60.022	1.0.0.185	1	-245653510	Professional	2.0.10.356	2.0.10.356	08-28-2018	n/a	18:27:52	2.0.10.252	4	0	0	664244	16	664244	3998	-999999	841786	-3	824184	0	Run3Proc	4	1	4	RunList	2	OfficeLarge	8000	0	712226	0	712226	0	712226	0	E3OfficeLargeBlockProc	n/a	n/a	n/a	n/a	n/a	n/a	2.0	1.0	2.0	n/a	n/a	n/a	n/a	n/a	n/a	Run3BlockList	5	n/a	n/a	n/a	n/a	n/a	n/a	n/a	n/a	n/a	n/a	n/a	n/a	n/a	n/a	n/a	n/a	n/a	n/a	n/a	n/a	n/a	n/a	n/a	n/a	n/a	n/a	n/a	n/a	n/a	n/a	n/a	n/a	n/a	n/a	n/a	n/a	n/a	n/a	n/a	n/a	n/a	n/a	n/a	n/a	n/a	n/a	n/a	n/a	n/a	n/a	n/a	n/a	n/a	n/a	n/a	n/a	n/a	n/a	n/a	n/a	n/a	n/a	n/a	n/a	n/a	n/a	5.0	1.0	5.0	n/a	n/a	n/a	n/a	n/a	n/a	n/a	n/a	n/a	n/a	n/a	n/a	n/a	n/a	n/a	n/a	n/a	n/a	n/a	n/a	n/a	E3_05.jpg	500	0	708727	-1	708727	0	TrialProc1	E3OfficeLargeBlockList	2500	0	706228	0	706228	0	706228	2499	n/a	0	0	41.986
45	2.5	000_R01_VB_allProc	28	1	"<?xml version=""1.0""?>\n<Clock xmlns:dt=""urn:schemas-microsoft-com:datatypes""><Description dt:dt=""string"">E-Prime Primary Realtime Clock</Description><StartTime><Timestamp dt:dt=""int"">0</Timestamp><DateUtc dt:dt=""string"">2018-08-28T22:27:52Z</DateUtc></StartTime><FrequencyChanges><FrequencyChange><Frequency dt:dt=""r8"">3020410</Frequency><Timestamp dt:dt=""r8"">4048714613</Timestamp><Current dt:dt=""r8"">0</Current><DateUtc dt:dt=""string"">2018-08-28T22:27:52Z</DateUtc></FrequencyChange></FrequencyChanges></Clock>\n"	000_R01_VB_allProc-28-1	60.022	1.0.0.185	1	-245653510	Professional	2.0.10.356	2.0.10.356	08-28-2018	n/a	18:27:52	2.0.10.252	4	0	0	664244	16	664244	3998	-999999	841786	-3	824184	0	Run3Proc	4	1	4	RunList	2	OfficeLarge	8000	0	712226	0	712226	0	712226	0	E3OfficeLargeBlockProc	n/a	n/a	n/a	n/a	n/a	n/a	2.0	1.0	2.0	n/a	n/a	n/a	n/a	n/a	n/a	Run3BlockList	6	n/a	n/a	n/a	n/a	n/a	n/a	n/a	n/a	n/a	n/a	n/a	n/a	n/a	n/a	n/a	n/a	n/a	n/a	n/a	n/a	n/a	n/a	n/a	n/a	n/a	n/a	n/a	n/a	n/a	n/a	n/a	n/a	n/a	n/a	n/a	n/a	n/a	n/a	n/a	n/a	n/a	n/a	n/a	n/a	n/a	n/a	n/a	n/a	n/a	n/a	n/a	n/a	n/a	n/a	n/a	n/a	n/a	n/a	n/a	n/a	n/a	n/a	n/a	n/a	n/a	n/a	6.0	1.0	6.0	n/a	n/a	n/a	n/a	n/a	n/a	n/a	n/a	n/a	n/a	n/a	n/a	n/a	n/a	n/a	n/a	n/a	n/a	n/a	n/a	n/a	E3_06.jpg	500	0	711726	-1	711726	0	TrialProc1	E3OfficeLargeBlockList	2500	0	709227	0	709227	0	709227	2499	n/a	0	0	44.985
56	2.5	000_R01_VB_allProc	28	1	"<?xml version=""1.0""?>\n<Clock xmlns:dt=""urn:schemas-microsoft-com:datatypes""><Description dt:dt=""string"">E-Prime Primary Realtime Clock</Description><StartTime><Timestamp dt:dt=""int"">0</Timestamp><DateUtc dt:dt=""string"">2018-08-28T22:27:52Z</DateUtc></StartTime><FrequencyChanges><FrequencyChange><Frequency dt:dt=""r8"">3020410</Frequency><Timestamp dt:dt=""r8"">4048714613</Timestamp><Current dt:dt=""r8"">0</Current><DateUtc dt:dt=""string"">2018-08-28T22:27:52Z</DateUtc></FrequencyChange></FrequencyChanges></Clock>\n"	000_R01_VB_allProc-28-1	60.022	1.0.0.185	1	-245653510	Professional	2.0.10.356	2.0.10.356	08-28-2018	n/a	18:27:52	2.0.10.252	4	0	0	664244	16	664244	3998	-999999	841786	-3	824184	0	Run3Proc	4	1	4	RunList	3	HighSmallED	8000	0	738216	0	738216	0	738216	0	B3HighSmallEDBlockProc	n/a	n/a	n/a	n/a	n/a	n/a	3.0	1.0	3.0	n/a	n/a	n/a	n/a	n/a	n/a	Run3BlockList	1	n/a	n/a	n/a	n/a	n/a	n/a	n/a	n/a	n/a	n/a	n/a	n/a	n/a	n/a	n/a	n/a	n/a	n/a	n/a	n/a	n/a	1.0	1.0	1.0	n/a	n/a	n/a	n/a	n/a	n/a	n/a	n/a	n/a	n/a	n/a	n/a	n/a	n/a	n/a	n/a	n/a	n/a	n/a	n/a	n/a	n/a	n/a	n/a	n/a	n/a	n/a	n/a	n/a	n/a	n/a	n/a	n/a	n/a	n/a	n/a	n/a	n/a	n/a	n/a	n/a	n/a	n/a	n/a	n/a	n/a	n/a	n/a	n/a	n/a	n/a	n/a	n/a	n/a	n/a	n/a	n/a	n/a	n/a	n/a	n/a	n/a	n/a	n/a	n/a	n/a	B3_01.jpg	500	0	722722	-1	722722	0	TrialProc1	B3HighSmallEDBlockList	2500	0	720223	0	720223	-3	720223	2499	n/a	0	0	55.981
59	2.5	000_R01_VB_allProc	28	1	"<?xml version=""1.0""?>\n<Clock xmlns:dt=""urn:schemas-microsoft-com:datatypes""><Description dt:dt=""string"">E-Prime Primary Realtime Clock</Description><StartTime><Timestamp dt:dt=""int"">0</Timestamp><DateUtc dt:dt=""string"">2018-08-28T22:27:52Z</DateUtc></StartTime><FrequencyChanges><FrequencyChange><Frequency dt:dt=""r8"">3020410</Frequency><Timestamp dt:dt=""r8"">4048714613</Timestamp><Current dt:dt=""r8"">0</Current><DateUtc dt:dt=""string"">2018-08-28T22:27:52Z</DateUtc></FrequencyChange></FrequencyChanges></Clock>\n"	000_R01_VB_allProc-28-1	60.022	1.0.0.185	1	-245653510	Professional	2.0.10.356	2.0.10.356	08-28-2018	n/a	18:27:52	2.0.10.252	4	0	0	664244	16	664244	3998	-999999	841786	-3	824184	0	Run3Proc	4	1	4	RunList	3	HighSmallED	8000	0	738216	0	738216	0	738216	0	B3HighSmallEDBlockProc	n/a	n/a	n/a	n/a	n/a	n/a	3.0	1.0	3.0	n/a	n/a	n/a	n/a	n/a	n/a	Run3BlockList	2	n/a	n/a	n/a	n/a	n/a	n/a	n/a	n/a	n/a	n/a	n/a	n/a	n/a	n/a	n/a	n/a	n/a	n/a	n/a	n/a	n/a	2.0	1.0	2.0	n/a	n/a	n/a	n/a	n/a	n/a	n/a	n/a	n/a	n/a	n/a	n/a	n/a	n/a	n/a	n/a	n/a	n/a	n/a	n/a	n/a	n/a	n/a	n/a	n/a	n/a	n/a	n/a	n/a	n/a	n/a	n/a	n/a	n/a	n/a	n/a	n/a	n/a	n/a	n/a	n/a	n/a	n/a	n/a	n/a	n/a	n/a	n/a	n/a	n/a	n/a	n/a	n/a	n/a	n/a	n/a	n/a	n/a	n/a	n/a	n/a	n/a	n/a	n/a	n/a	n/a	B3_02.jpg	500	0	725721	-1	725721	0	TrialProc1	B3HighSmallEDBlockList	2500	0	723222	0	723222	0	723222	2499	n/a	0	0	58.98
62	2.5	000_R01_VB_allProc	28	1	"<?xml version=""1.0""?>\n<Clock xmlns:dt=""urn:schemas-microsoft-com:datatypes""><Description dt:dt=""string"">E-Prime Primary Realtime Clock</Description><StartTime><Timestamp dt:dt=""int"">0</Timestamp><DateUtc dt:dt=""string"">2018-08-28T22:27:52Z</DateUtc></StartTime><FrequencyChanges><FrequencyChange><Frequency dt:dt=""r8"">3020410</Frequency><Timestamp dt:dt=""r8"">4048714613</Timestamp><Current dt:dt=""r8"">0</Current><DateUtc dt:dt=""string"">2018-08-28T22:27:52Z</DateUtc></FrequencyChange></FrequencyChanges></Clock>\n"	000_R01_VB_allProc-28-1	60.022	1.0.0.185	1	-245653510	Professional	2.0.10.356	2.0.10.356	08-28-2018	n/a	18:27:52	2.0.10.252	4	0	0	664244	16	664244	3998	-999999	841786	-3	824184	0	Run3Proc	4	1	4	RunList	3	HighSmallED	8000	0	738216	0	738216	0	738216	0	B3HighSmallEDBlockProc	n/a	n/a	n/a	n/a	n/a	n/a	3.0	1.0	3.0	n/a	n/a	n/a	n/a	n/a	n/a	Run3BlockList	3	n/a	n/a	n/a	n/a	n/a	n/a	n/a	n/a	n/a	n/a	n/a	n/a	n/a	n/a	n/a	n/a	n/a	n/a	n/a	n/a	n/a	3.0	1.0	3.0	n/a	n/a	n/a	n/a	n/a	n/a	n/a	n/a	n/a	n/a	n/a	n/a	n/a	n/a	n/a	n/a	n/a	n/a	n/a	n/a	n/a	n/a	n/a	n/a	n/a	n/a	n/a	n/a	n/a	n/a	n/a	n/a	n/a	n/a	n/a	n/a	n/a	n/a	n/a	n/a	n/a	n/a	n/a	n/a	n/a	n/a	n/a	n/a	n/a	n/a	n/a	n/a	n/a	n/a	n/a	n/a	n/a	n/a	n/a	n/a	n/a	n/a	n/a	n/a	n/a	n/a	B3_03.jpg	500	0	728720	-1	728720	0	TrialProc1	B3HighSmallEDBlockList	2500	0	726221	0	726221	0	726221	2499	n/a	0	0	61.979
65	2.5	000_R01_VB_allProc	28	1	"<?xml version=""1.0""?>\n<Clock xmlns:dt=""urn:schemas-microsoft-com:datatypes""><Description dt:dt=""string"">E-Prime Primary Realtime Clock</Description><StartTime><Timestamp dt:dt=""int"">0</Timestamp><DateUtc dt:dt=""string"">2018-08-28T22:27:52Z</DateUtc></StartTime><FrequencyChanges><FrequencyChange><Frequency dt:dt=""r8"">3020410</Frequency><Timestamp dt:dt=""r8"">4048714613</Timestamp><Current dt:dt=""r8"">0</Current><DateUtc dt:dt=""string"">2018-08-28T22:27:52Z</DateUtc></FrequencyChange></FrequencyChanges></Clock>\n"	000_R01_VB_allProc-28-1	60.022	1.0.0.185	1	-245653510	Professional	2.0.10.356	2.0.10.356	08-28-2018	n/a	18:27:52	2.0.10.252	4	0	0	664244	16	664244	3998	-999999	841786	-3	824184	0	Run3Proc	4	1	4	RunList	3	HighSmallED	8000	0	738216	0	738216	0	738216	0	B3HighSmallEDBlockProc	n/a	n/a	n/a	n/a	n/a	n/a	3.0	1.0	3.0	n/a	n/a	n/a	n/a	n/a	n/a	Run3BlockList	4	n/a	n/a	n/a	n/a	n/a	n/a	n/a	n/a	n/a	n/a	n/a	n/a	n/a	n/a	n/a	n/a	n/a	n/a	n/a	n/a	n/a	4.0	1.0	4.0	n/a	n/a	n/a	n/a	n/a	n/a	n/a	n/a	n/a	n/a	n/a	n/a	n/a	n/a	n/a	n/a	n/a	n/a	n/a	n/a	n/a	n/a	n/a	n/a	n/a	n/a	n/a	n/a	n/a	n/a	n/a	n/a	n/a	n/a	n/a	n/a	n/a	n/a	n/a	n/a	n/a	n/a	n/a	n/a	n/a	n/a	n/a	n/a	n/a	n/a	n/a	n/a	n/a	n/a	n/a	n/a	n/a	n/a	n/a	n/a	n/a	n/a	n/a	n/a	n/a	n/a	B3_04.jpg	500	0	731719	0	731719	0	TrialProc1	B3HighSmallEDBlockList	2500	1	729220	1	729220	-1	729219	2500	n/a	0	0	64.977
68	2.5	000_R01_VB_allProc	28	1	"<?xml version=""1.0""?>\n<Clock xmlns:dt=""urn:schemas-microsoft-com:datatypes""><Description dt:dt=""string"">E-Prime Primary Realtime Clock</Description><StartTime><Timestamp dt:dt=""int"">0</Timestamp><DateUtc dt:dt=""string"">2018-08-28T22:27:52Z</DateUtc></StartTime><FrequencyChanges><FrequencyChange><Frequency dt:dt=""r8"">3020410</Frequency><Timestamp dt:dt=""r8"">4048714613</Timestamp><Current dt:dt=""r8"">0</Current><DateUtc dt:dt=""string"">2018-08-28T22:27:52Z</DateUtc></FrequencyChange></FrequencyChanges></Clock>\n"	000_R01_VB_allProc-28-1	60.022	1.0.0.185	1	-245653510	Professional	2.0.10.356	2.0.10.356	08-28-2018	n/a	18:27:52	2.0.10.252	4	0	0	664244	16	664244	3998	-999999	841786	-3	824184	0	Run3Proc	4	1	4	RunList	3	HighSmallED	8000	0	738216	0	738216	0	738216	0	B3HighSmallEDBlockProc	n/a	n/a	n/a	n/a	n/a	n/a	3.0	1.0	3.0	n/a	n/a	n/a	n/a	n/a	n/a	Run3BlockList	5	n/a	n/a	n/a	n/a	n/a	n/a	n/a	n/a	n/a	n/a	n/a	n/a	n/a	n/a	n/a	n/a	n/a	n/a	n/a	n/a	n/a	5.0	1.0	5.0	n/a	n/a	n/a	n/a	n/a	n/a	n/a	n/a	n/a	n/a	n/a	n/a	n/a	n/a	n/a	n/a	n/a	n/a	n/a	n/a	n/a	n/a	n/a	n/a	n/a	n/a	n/a	n/a	n/a	n/a	n/a	n/a	n/a	n/a	n/a	n/a	n/a	n/a	n/a	n/a	n/a	n/a	n/a	n/a	n/a	n/a	n/a	n/a	n/a	n/a	n/a	n/a	n/a	n/a	n/a	n/a	n/a	n/a	n/a	n/a	n/a	n/a	n/a	n/a	n/a	n/a	B3_05.jpg	500	1	734718	-1	734717	0	TrialProc1	B3HighSmallEDBlockList	2500	0	732218	0	732218	-1	732218	2499	n/a	0	0	67.976
71	2.5	000_R01_VB_allProc	28	1	"<?xml version=""1.0""?>\n<Clock xmlns:dt=""urn:schemas-microsoft-com:datatypes""><Description dt:dt=""string"">E-Prime Primary Realtime Clock</Description><StartTime><Timestamp dt:dt=""int"">0</Timestamp><DateUtc dt:dt=""string"">2018-08-28T22:27:52Z</DateUtc></StartTime><FrequencyChanges><FrequencyChange><Frequency dt:dt=""r8"">3020410</Frequency><Timestamp dt:dt=""r8"">4048714613</Timestamp><Current dt:dt=""r8"">0</Current><DateUtc dt:dt=""string"">2018-08-28T22:27:52Z</DateUtc></FrequencyChange></FrequencyChanges></Clock>\n"	000_R01_VB_allProc-28-1	60.022	1.0.0.185	1	-245653510	Professional	2.0.10.356	2.0.10.356	08-28-2018	n/a	18:27:52	2.0.10.252	4	0	0	664244	16	664244	3998	-999999	841786	-3	824184	0	Run3Proc	4	1	4	RunList	3	HighSmallED	8000	0	738216	0	738216	0	738216	0	B3HighSmallEDBlockProc	n/a	n/a	n/a	n/a	n/a	n/a	3.0	1.0	3.0	n/a	n/a	n/a	n/a	n/a	n/a	Run3BlockList	6	n/a	n/a	n/a	n/a	n/a	n/a	n/a	n/a	n/a	n/a	n/a	n/a	n/a	n/a	n/a	n/a	n/a	n/a	n/a	n/a	n/a	6.0	1.0	6.0	n/a	n/a	n/a	n/a	n/a	n/a	n/a	n/a	n/a	n/a	n/a	n/a	n/a	n/a	n/a	n/a	n/a	n/a	n/a	n/a	n/a	n/a	n/a	n/a	n/a	n/a	n/a	n/a	n/a	n/a	n/a	n/a	n/a	n/a	n/a	n/a	n/a	n/a	n/a	n/a	n/a	n/a	n/a	n/a	n/a	n/a	n/a	n/a	n/a	n/a	n/a	n/a	n/a	n/a	n/a	n/a	n/a	n/a	n/a	n/a	n/a	n/a	n/a	n/a	n/a	n/a	B3_06.jpg	500	0	737717	-1	737716	0	TrialProc1	B3HighSmallEDBlockList	2500	0	735217	0	735217	0	735217	2499	n/a	0	0	70.975
82	2.5	000_R01_VB_allProc	28	1	"<?xml version=""1.0""?>\n<Clock xmlns:dt=""urn:schemas-microsoft-com:datatypes""><Description dt:dt=""string"">E-Prime Primary Realtime Clock</Description><StartTime><Timestamp dt:dt=""int"">0</Timestamp><DateUtc dt:dt=""string"">2018-08-28T22:27:52Z</DateUtc></StartTime><FrequencyChanges><FrequencyChange><Frequency dt:dt=""r8"">3020410</Frequency><Timestamp dt:dt=""r8"">4048714613</Timestamp><Current dt:dt=""r8"">0</Current><DateUtc dt:dt=""string"">2018-08-28T22:27:52Z</DateUtc></FrequencyChange></FrequencyChanges></Clock>\n"	000_R01_VB_allProc-28-1	60.022	1.0.0.185	1	-245653510	Professional	2.0.10.356	2.0.10.356	08-28-2018	n/a	18:27:52	2.0.10.252	4	0	0	664244	16	664244	3998	-999999	841786	-3	824184	0	Run3Proc	4	1	4	RunList	4	OfficeSmall	8000	1	764207	1	764207	-1	764206	0	F3OfficeSmallBlockProc	n/a	n/a	n/a	n/a	n/a	n/a	4.0	1.0	4.0	n/a	n/a	n/a	n/a	n/a	n/a	Run3BlockList	1	n/a	n/a	n/a	n/a	n/a	n/a	n/a	n/a	n/a	n/a	n/a	n/a	n/a	n/a	n/a	n/a	n/a	n/a	n/a	n/a	n/a	n/a	n/a	n/a	n/a	n/a	n/a	n/a	n/a	n/a	n/a	n/a	n/a	n/a	n/a	n/a	n/a	n/a	n/a	n/a	n/a	n/a	n/a	n/a	n/a	n/a	n/a	n/a	n/a	n/a	n/a	n/a	n/a	n/a	n/a	n/a	n/a	n/a	n/a	n/a	n/a	n/a	n/a	n/a	n/a	n/a	n/a	n/a	n/a	n/a	n/a	n/a	n/a	n/a	n/a	n/a	n/a	n/a	n/a	n/a	n/a	1.0	1.0	1.0	n/a	n/a	n/a	n/a	n/a	n/a	F3_01.jpg	500	0	748712	-1	748712	0	TrialProc1	F3OfficeSmallBlockList	2500	0	746213	0	746213	-3	746213	2499	d	1184	747397	81.971
85	2.5	000_R01_VB_allProc	28	1	"<?xml version=""1.0""?>\n<Clock xmlns:dt=""urn:schemas-microsoft-com:datatypes""><Description dt:dt=""string"">E-Prime Primary Realtime Clock</Description><StartTime><Timestamp dt:dt=""int"">0</Timestamp><DateUtc dt:dt=""string"">2018-08-28T22:27:52Z</DateUtc></StartTime><FrequencyChanges><FrequencyChange><Frequency dt:dt=""r8"">3020410</Frequency><Timestamp dt:dt=""r8"">4048714613</Timestamp><Current dt:dt=""r8"">0</Current><DateUtc dt:dt=""string"">2018-08-28T22:27:52Z</DateUtc></FrequencyChange></FrequencyChanges></Clock>\n"	000_R01_VB_allProc-28-1	60.022	1.0.0.185	1	-245653510	Professional	2.0.10.356	2.0.10.356	08-28-2018	n/a	18:27:52	2.0.10.252	4	0	0	664244	16	664244	3998	-999999	841786	-3	824184	0	Run3Proc	4	1	4	RunList	4	OfficeSmall	8000	1	764207	1	764207	-1	764206	0	F3OfficeSmallBlockProc	n/a	n/a	n/a	n/a	n/a	n/a	4.0	1.0	4.0	n/a	n/a	n/a	n/a	n/a	n/a	Run3BlockList	2	n/a	n/a	n/a	n/a	n/a	n/a	n/a	n/a	n/a	n/a	n/a	n/a	n/a	n/a	n/a	n/a	n/a	n/a	n/a	n/a	n/a	n/a	n/a	n/a	n/a	n/a	n/a	n/a	n/a	n/a	n/a	n/a	n/a	n/a	n/a	n/a	n/a	n/a	n/a	n/a	n/a	n/a	n/a	n/a	n/a	n/a	n/a	n/a	n/a	n/a	n/a	n/a	n/a	n/a	n/a	n/a	n/a	n/a	n/a	n/a	n/a	n/a	n/a	n/a	n/a	n/a	n/a	n/a	n/a	n/a	n/a	n/a	n/a	n/a	n/a	n/a	n/a	n/a	n/a	n/a	n/a	2.0	1.0	2.0	n/a	n/a	n/a	n/a	n/a	n/a	F3_02.jpg	500	0	751711	-1	751711	0	TrialProc1	F3OfficeSmallBlockList	2500	0	749212	0	749212	0	749212	2499	d	481	749693	84.97
88	2.5	000_R01_VB_allProc	28	1	"<?xml version=""1.0""?>\n<Clock xmlns:dt=""urn:schemas-microsoft-com:datatypes""><Description dt:dt=""string"">E-Prime Primary Realtime Clock</Description><StartTime><Timestamp dt:dt=""int"">0</Timestamp><DateUtc dt:dt=""string"">2018-08-28T22:27:52Z</DateUtc></StartTime><FrequencyChanges><FrequencyChange><Frequency dt:dt=""r8"">3020410</Frequency><Timestamp dt:dt=""r8"">4048714613</Timestamp><Current dt:dt=""r8"">0</Current><DateUtc dt:dt=""string"">2018-08-28T22:27:52Z</DateUtc></FrequencyChange></FrequencyChanges></Clock>\n"	000_R01_VB_allProc-28-1	60.022	1.0.0.185	1	-245653510	Professional	2.0.10.356	2.0.10.356	08-28-2018	n/a	18:27:52	2.0.10.252	4	0	0	664244	16	664244	3998	-999999	841786	-3	824184	0	Run3Proc	4	1	4	RunList	4	OfficeSmall	8000	1	764207	1	764207	-1	764206	0	F3OfficeSmallBlockProc	n/a	n/a	n/a	n/a	n/a	n/a	4.0	1.0	4.0	n/a	n/a	n/a	n/a	n/a	n/a	Run3BlockList	3	n/a	n/a	n/a	n/a	n/a	n/a	n/a	n/a	n/a	n/a	n/a	n/a	n/a	n/a	n/a	n/a	n/a	n/a	n/a	n/a	n/a	n/a	n/a	n/a	n/a	n/a	n/a	n/a	n/a	n/a	n/a	n/a	n/a	n/a	n/a	n/a	n/a	n/a	n/a	n/a	n/a	n/a	n/a	n/a	n/a	n/a	n/a	n/a	n/a	n/a	n/a	n/a	n/a	n/a	n/a	n/a	n/a	n/a	n/a	n/a	n/a	n/a	n/a	n/a	n/a	n/a	n/a	n/a	n/a	n/a	n/a	n/a	n/a	n/a	n/a	n/a	n/a	n/a	n/a	n/a	n/a	3.0	1.0	3.0	n/a	n/a	n/a	n/a	n/a	n/a	F3_03.jpg	500	0	754710	-1	754710	0	TrialProc1	F3OfficeSmallBlockList	2500	0	752211	0	752211	0	752211	2499	d	802	753013	87.969
91	2.5	000_R01_VB_allProc	28	1	"<?xml version=""1.0""?>\n<Clock xmlns:dt=""urn:schemas-microsoft-com:datatypes""><Description dt:dt=""string"">E-Prime Primary Realtime Clock</Description><StartTime><Timestamp dt:dt=""int"">0</Timestamp><DateUtc dt:dt=""string"">2018-08-28T22:27:52Z</DateUtc></StartTime><FrequencyChanges><FrequencyChange><Frequency dt:dt=""r8"">3020410</Frequency><Timestamp dt:dt=""r8"">4048714613</Timestamp><Current dt:dt=""r8"">0</Current><DateUtc dt:dt=""string"">2018-08-28T22:27:52Z</DateUtc></FrequencyChange></FrequencyChanges></Clock>\n"	000_R01_VB_allProc-28-1	60.022	1.0.0.185	1	-245653510	Professional	2.0.10.356	2.0.10.356	08-28-2018	n/a	18:27:52	2.0.10.252	4	0	0	664244	16	664244	3998	-999999	841786	-3	824184	0	Run3Proc	4	1	4	RunList	4	OfficeSmall	8000	1	764207	1	764207	-1	764206	0	F3OfficeSmallBlockProc	n/a	n/a	n/a	n/a	n/a	n/a	4.0	1.0	4.0	n/a	n/a	n/a	n/a	n/a	n/a	Run3BlockList	4	n/a	n/a	n/a	n/a	n/a	n/a	n/a	n/a	n/a	n/a	n/a	n/a	n/a	n/a	n/a	n/a	n/a	n/a	n/a	n/a	n/a	n/a	n/a	n/a	n/a	n/a	n/a	n/a	n/a	n/a	n/a	n/a	n/a	n/a	n/a	n/a	n/a	n/a	n/a	n/a	n/a	n/a	n/a	n/a	n/a	n/a	n/a	n/a	n/a	n/a	n/a	n/a	n/a	n/a	n/a	n/a	n/a	n/a	n/a	n/a	n/a	n/a	n/a	n/a	n/a	n/a	n/a	n/a	n/a	n/a	n/a	n/a	n/a	n/a	n/a	n/a	n/a	n/a	n/a	n/a	n/a	4.0	1.0	4.0	n/a	n/a	n/a	n/a	n/a	n/a	F3_04.jpg	500	0	757709	-1	757709	0	TrialProc1	F3OfficeSmallBlockList	2500	0	755210	0	755210	0	755210	2499	d	195	755405	90.968
94	2.5	000_R01_VB_allProc	28	1	"<?xml version=""1.0""?>\n<Clock xmlns:dt=""urn:schemas-microsoft-com:datatypes""><Description dt:dt=""string"">E-Prime Primary Realtime Clock</Description><StartTime><Timestamp dt:dt=""int"">0</Timestamp><DateUtc dt:dt=""string"">2018-08-28T22:27:52Z</DateUtc></StartTime><FrequencyChanges><FrequencyChange><Frequency dt:dt=""r8"">3020410</Frequency><Timestamp dt:dt=""r8"">4048714613</Timestamp><Current dt:dt=""r8"">0</Current><DateUtc dt:dt=""string"">2018-08-28T22:27:52Z</DateUtc></FrequencyChange></FrequencyChanges></Clock>\n"	000_R01_VB_allProc-28-1	60.022	1.0.0.185	1	-245653510	Professional	2.0.10.356	2.0.10.356	08-28-2018	n/a	18:27:52	2.0.10.252	4	0	0	664244	16	664244	3998	-999999	841786	-3	824184	0	Run3Proc	4	1	4	RunList	4	OfficeSmall	8000	1	764207	1	764207	-1	764206	0	F3OfficeSmallBlockProc	n/a	n/a	n/a	n/a	n/a	n/a	4.0	1.0	4.0	n/a	n/a	n/a	n/a	n/a	n/a	Run3BlockList	5	n/a	n/a	n/a	n/a	n/a	n/a	n/a	n/a	n/a	n/a	n/a	n/a	n/a	n/a	n/a	n/a	n/a	n/a	n/a	n/a	n/a	n/a	n/a	n/a	n/a	n/a	n/a	n/a	n/a	n/a	n/a	n/a	n/a	n/a	n/a	n/a	n/a	n/a	n/a	n/a	n/a	n/a	n/a	n/a	n/a	n/a	n/a	n/a	n/a	n/a	n/a	n/a	n/a	n/a	n/a	n/a	n/a	n/a	n/a	n/a	n/a	n/a	n/a	n/a	n/a	n/a	n/a	n/a	n/a	n/a	n/a	n/a	n/a	n/a	n/a	n/a	n/a	n/a	n/a	n/a	n/a	5.0	1.0	5.0	n/a	n/a	n/a	n/a	n/a	n/a	F3_05.jpg	500	0	760708	-1	760708	0	TrialProc1	F3OfficeSmallBlockList	2500	0	758209	0	758209	0	758209	2499	d	764	758973	93.967
97	2.5	000_R01_VB_allProc	28	1	"<?xml version=""1.0""?>\n<Clock xmlns:dt=""urn:schemas-microsoft-com:datatypes""><Description dt:dt=""string"">E-Prime Primary Realtime Clock</Description><StartTime><Timestamp dt:dt=""int"">0</Timestamp><DateUtc dt:dt=""string"">2018-08-28T22:27:52Z</DateUtc></StartTime><FrequencyChanges><FrequencyChange><Frequency dt:dt=""r8"">3020410</Frequency><Timestamp dt:dt=""r8"">4048714613</Timestamp><Current dt:dt=""r8"">0</Current><DateUtc dt:dt=""string"">2018-08-28T22:27:52Z</DateUtc></FrequencyChange></FrequencyChanges></Clock>\n"	000_R01_VB_allProc-28-1	60.022	1.0.0.185	1	-245653510	Professional	2.0.10.356	2.0.10.356	08-28-2018	n/a	18:27:52	2.0.10.252	4	0	0	664244	16	664244	3998	-999999	841786	-3	824184	0	Run3Proc	4	1	4	RunList	4	OfficeSmall	8000	1	764207	1	764207	-1	764206	0	F3OfficeSmallBlockProc	n/a	n/a	n/a	n/a	n/a	n/a	4.0	1.0	4.0	n/a	n/a	n/a	n/a	n/a	n/a	Run3BlockList	6	n/a	n/a	n/a	n/a	n/a	n/a	n/a	n/a	n/a	n/a	n/a	n/a	n/a	n/a	n/a	n/a	n/a	n/a	n/a	n/a	n/a	n/a	n/a	n/a	n/a	n/a	n/a	n/a	n/a	n/a	n/a	n/a	n/a	n/a	n/a	n/a	n/a	n/a	n/a	n/a	n/a	n/a	n/a	n/a	n/a	n/a	n/a	n/a	n/a	n/a	n/a	n/a	n/a	n/a	n/a	n/a	n/a	n/a	n/a	n/a	n/a	n/a	n/a	n/a	n/a	n/a	n/a	n/a	n/a	n/a	n/a	n/a	n/a	n/a	n/a	n/a	n/a	n/a	n/a	n/a	n/a	6.0	1.0	6.0	n/a	n/a	n/a	n/a	n/a	n/a	F3_06.jpg	500	0	763707	-1	763707	0	TrialProc1	F3OfficeSmallBlockList	2500	0	761208	0	761208	0	761208	2499	c	2380	763588	96.966
108	2.5	000_R01_VB_allProc	28	1	"<?xml version=""1.0""?>\n<Clock xmlns:dt=""urn:schemas-microsoft-com:datatypes""><Description dt:dt=""string"">E-Prime Primary Realtime Clock</Description><StartTime><Timestamp dt:dt=""int"">0</Timestamp><DateUtc dt:dt=""string"">2018-08-28T22:27:52Z</DateUtc></StartTime><FrequencyChanges><FrequencyChange><Frequency dt:dt=""r8"">3020410</Frequency><Timestamp dt:dt=""r8"">4048714613</Timestamp><Current dt:dt=""r8"">0</Current><DateUtc dt:dt=""string"">2018-08-28T22:27:52Z</DateUtc></FrequencyChange></FrequencyChanges></Clock>\n"	000_R01_VB_allProc-28-1	60.022	1.0.0.185	1	-245653510	Professional	2.0.10.356	2.0.10.356	08-28-2018	n/a	18:27:52	2.0.10.252	4	0	0	664244	16	664244	3998	-999999	841786	-3	824184	0	Run3Proc	4	1	4	RunList	5	HighLargeED	8000	0	790197	0	790197	0	790197	0	A3HighLargeEDBlockProc	n/a	n/a	n/a	n/a	n/a	n/a	5.0	1.0	5.0	n/a	n/a	n/a	n/a	n/a	n/a	Run3BlockList	1	n/a	n/a	n/a	n/a	n/a	n/a	1.0	1.0	1.0	n/a	n/a	n/a	n/a	n/a	n/a	n/a	n/a	n/a	n/a	n/a	n/a	n/a	n/a	n/a	n/a	n/a	n/a	n/a	n/a	n/a	n/a	n/a	n/a	n/a	n/a	n/a	n/a	n/a	n/a	n/a	n/a	n/a	n/a	n/a	n/a	n/a	n/a	n/a	n/a	n/a	n/a	n/a	n/a	n/a	n/a	n/a	n/a	n/a	n/a	n/a	n/a	n/a	n/a	n/a	n/a	n/a	n/a	n/a	n/a	n/a	n/a	n/a	n/a	n/a	n/a	n/a	n/a	n/a	n/a	n/a	n/a	n/a	n/a	n/a	n/a	n/a	n/a	n/a	n/a	n/a	A3_01.jpg	500	0	774703	0	774703	0	TrialProc1	A3HighLargeEDBlockList	2500	1	772204	1	772204	-3	772203	2500	c	1257	773460	107.961
111	2.5	000_R01_VB_allProc	28	1	"<?xml version=""1.0""?>\n<Clock xmlns:dt=""urn:schemas-microsoft-com:datatypes""><Description dt:dt=""string"">E-Prime Primary Realtime Clock</Description><StartTime><Timestamp dt:dt=""int"">0</Timestamp><DateUtc dt:dt=""string"">2018-08-28T22:27:52Z</DateUtc></StartTime><FrequencyChanges><FrequencyChange><Frequency dt:dt=""r8"">3020410</Frequency><Timestamp dt:dt=""r8"">4048714613</Timestamp><Current dt:dt=""r8"">0</Current><DateUtc dt:dt=""string"">2018-08-28T22:27:52Z</DateUtc></FrequencyChange></FrequencyChanges></Clock>\n"	000_R01_VB_allProc-28-1	60.022	1.0.0.185	1	-245653510	Professional	2.0.10.356	2.0.10.356	08-28-2018	n/a	18:27:52	2.0.10.252	4	0	0	664244	16	664244	3998	-999999	841786	-3	824184	0	Run3Proc	4	1	4	RunList	5	HighLargeED	8000	0	790197	0	790197	0	790197	0	A3HighLargeEDBlockProc	n/a	n/a	n/a	n/a	n/a	n/a	5.0	1.0	5.0	n/a	n/a	n/a	n/a	n/a	n/a	Run3BlockList	2	n/a	n/a	n/a	n/a	n/a	n/a	2.0	1.0	2.0	n/a	n/a	n/a	n/a	n/a	n/a	n/a	n/a	n/a	n/a	n/a	n/a	n/a	n/a	n/a	n/a	n/a	n/a	n/a	n/a	n/a	n/a	n/a	n/a	n/a	n/a	n/a	n/a	n/a	n/a	n/a	n/a	n/a	n/a	n/a	n/a	n/a	n/a	n/a	n/a	n/a	n/a	n/a	n/a	n/a	n/a	n/a	n/a	n/a	n/a	n/a	n/a	n/a	n/a	n/a	n/a	n/a	n/a	n/a	n/a	n/a	n/a	n/a	n/a	n/a	n/a	n/a	n/a	n/a	n/a	n/a	n/a	n/a	n/a	n/a	n/a	n/a	n/a	n/a	n/a	n/a	A3_02.jpg	500	1	777702	-1	777701	0	TrialProc1	A3HighLargeEDBlockList	2500	0	775202	0	775202	-1	775202	2499	d	674	775876	110.96
114	2.5	000_R01_VB_allProc	28	1	"<?xml version=""1.0""?>\n<Clock xmlns:dt=""urn:schemas-microsoft-com:datatypes""><Description dt:dt=""string"">E-Prime Primary Realtime Clock</Description><StartTime><Timestamp dt:dt=""int"">0</Timestamp><DateUtc dt:dt=""string"">2018-08-28T22:27:52Z</DateUtc></StartTime><FrequencyChanges><FrequencyChange><Frequency dt:dt=""r8"">3020410</Frequency><Timestamp dt:dt=""r8"">4048714613</Timestamp><Current dt:dt=""r8"">0</Current><DateUtc dt:dt=""string"">2018-08-28T22:27:52Z</DateUtc></FrequencyChange></FrequencyChanges></Clock>\n"	000_R01_VB_allProc-28-1	60.022	1.0.0.185	1	-245653510	Professional	2.0.10.356	2.0.10.356	08-28-2018	n/a	18:27:52	2.0.10.252	4	0	0	664244	16	664244	3998	-999999	841786	-3	824184	0	Run3Proc	4	1	4	RunList	5	HighLargeED	8000	0	790197	0	790197	0	790197	0	A3HighLargeEDBlockProc	n/a	n/a	n/a	n/a	n/a	n/a	5.0	1.0	5.0	n/a	n/a	n/a	n/a	n/a	n/a	Run3BlockList	3	n/a	n/a	n/a	n/a	n/a	n/a	3.0	1.0	3.0	n/a	n/a	n/a	n/a	n/a	n/a	n/a	n/a	n/a	n/a	n/a	n/a	n/a	n/a	n/a	n/a	n/a	n/a	n/a	n/a	n/a	n/a	n/a	n/a	n/a	n/a	n/a	n/a	n/a	n/a	n/a	n/a	n/a	n/a	n/a	n/a	n/a	n/a	n/a	n/a	n/a	n/a	n/a	n/a	n/a	n/a	n/a	n/a	n/a	n/a	n/a	n/a	n/a	n/a	n/a	n/a	n/a	n/a	n/a	n/a	n/a	n/a	n/a	n/a	n/a	n/a	n/a	n/a	n/a	n/a	n/a	n/a	n/a	n/a	n/a	n/a	n/a	n/a	n/a	n/a	n/a	A3_03.jpg	500	0	780700	-1	780700	0	TrialProc1	A3HighLargeEDBlockList	2500	0	778201	0	778201	0	778201	2499	d	771	778972	113.959
117	2.5	000_R01_VB_allProc	28	1	"<?xml version=""1.0""?>\n<Clock xmlns:dt=""urn:schemas-microsoft-com:datatypes""><Description dt:dt=""string"">E-Prime Primary Realtime Clock</Description><StartTime><Timestamp dt:dt=""int"">0</Timestamp><DateUtc dt:dt=""string"">2018-08-28T22:27:52Z</DateUtc></StartTime><FrequencyChanges><FrequencyChange><Frequency dt:dt=""r8"">3020410</Frequency><Timestamp dt:dt=""r8"">4048714613</Timestamp><Current dt:dt=""r8"">0</Current><DateUtc dt:dt=""string"">2018-08-28T22:27:52Z</DateUtc></FrequencyChange></FrequencyChanges></Clock>\n"	000_R01_VB_allProc-28-1	60.022	1.0.0.185	1	-245653510	Professional	2.0.10.356	2.0.10.356	08-28-2018	n/a	18:27:52	2.0.10.252	4	0	0	664244	16	664244	3998	-999999	841786	-3	824184	0	Run3Proc	4	1	4	RunList	5	HighLargeED	8000	0	790197	0	790197	0	790197	0	A3HighLargeEDBlockProc	n/a	n/a	n/a	n/a	n/a	n/a	5.0	1.0	5.0	n/a	n/a	n/a	n/a	n/a	n/a	Run3BlockList	4	n/a	n/a	n/a	n/a	n/a	n/a	4.0	1.0	4.0	n/a	n/a	n/a	n/a	n/a	n/a	n/a	n/a	n/a	n/a	n/a	n/a	n/a	n/a	n/a	n/a	n/a	n/a	n/a	n/a	n/a	n/a	n/a	n/a	n/a	n/a	n/a	n/a	n/a	n/a	n/a	n/a	n/a	n/a	n/a	n/a	n/a	n/a	n/a	n/a	n/a	n/a	n/a	n/a	n/a	n/a	n/a	n/a	n/a	n/a	n/a	n/a	n/a	n/a	n/a	n/a	n/a	n/a	n/a	n/a	n/a	n/a	n/a	n/a	n/a	n/a	n/a	n/a	n/a	n/a	n/a	n/a	n/a	n/a	n/a	n/a	n/a	n/a	n/a	n/a	n/a	A3_04.jpg	500	0	783699	-1	783699	0	TrialProc1	A3HighLargeEDBlockList	2500	0	781200	0	781200	0	781200	2499	n/a	0	0	116.958
120	2.5	000_R01_VB_allProc	28	1	"<?xml version=""1.0""?>\n<Clock xmlns:dt=""urn:schemas-microsoft-com:datatypes""><Description dt:dt=""string"">E-Prime Primary Realtime Clock</Description><StartTime><Timestamp dt:dt=""int"">0</Timestamp><DateUtc dt:dt=""string"">2018-08-28T22:27:52Z</DateUtc></StartTime><FrequencyChanges><FrequencyChange><Frequency dt:dt=""r8"">3020410</Frequency><Timestamp dt:dt=""r8"">4048714613</Timestamp><Current dt:dt=""r8"">0</Current><DateUtc dt:dt=""string"">2018-08-28T22:27:52Z</DateUtc></FrequencyChange></FrequencyChanges></Clock>\n"	000_R01_VB_allProc-28-1	60.022	1.0.0.185	1	-245653510	Professional	2.0.10.356	2.0.10.356	08-28-2018	n/a	18:27:52	2.0.10.252	4	0	0	664244	16	664244	3998	-999999	841786	-3	824184	0	Run3Proc	4	1	4	RunList	5	HighLargeED	8000	0	790197	0	790197	0	790197	0	A3HighLargeEDBlockProc	n/a	n/a	n/a	n/a	n/a	n/a	5.0	1.0	5.0	n/a	n/a	n/a	n/a	n/a	n/a	Run3BlockList	5	n/a	n/a	n/a	n/a	n/a	n/a	5.0	1.0	5.0	n/a	n/a	n/a	n/a	n/a	n/a	n/a	n/a	n/a	n/a	n/a	n/a	n/a	n/a	n/a	n/a	n/a	n/a	n/a	n/a	n/a	n/a	n/a	n/a	n/a	n/a	n/a	n/a	n/a	n/a	n/a	n/a	n/a	n/a	n/a	n/a	n/a	n/a	n/a	n/a	n/a	n/a	n/a	n/a	n/a	n/a	n/a	n/a	n/a	n/a	n/a	n/a	n/a	n/a	n/a	n/a	n/a	n/a	n/a	n/a	n/a	n/a	n/a	n/a	n/a	n/a	n/a	n/a	n/a	n/a	n/a	n/a	n/a	n/a	n/a	n/a	n/a	n/a	n/a	n/a	n/a	A3_05.jpg	500	0	786698	-1	786698	0	TrialProc1	A3HighLargeEDBlockList	2500	0	784199	0	784199	0	784199	2499	n/a	0	0	119.957
123	2.5	000_R01_VB_allProc	28	1	"<?xml version=""1.0""?>\n<Clock xmlns:dt=""urn:schemas-microsoft-com:datatypes""><Description dt:dt=""string"">E-Prime Primary Realtime Clock</Description><StartTime><Timestamp dt:dt=""int"">0</Timestamp><DateUtc dt:dt=""string"">2018-08-28T22:27:52Z</DateUtc></StartTime><FrequencyChanges><FrequencyChange><Frequency dt:dt=""r8"">3020410</Frequency><Timestamp dt:dt=""r8"">4048714613</Timestamp><Current dt:dt=""r8"">0</Current><DateUtc dt:dt=""string"">2018-08-28T22:27:52Z</DateUtc></FrequencyChange></FrequencyChanges></Clock>\n"	000_R01_VB_allProc-28-1	60.022	1.0.0.185	1	-245653510	Professional	2.0.10.356	2.0.10.356	08-28-2018	n/a	18:27:52	2.0.10.252	4	0	0	664244	16	664244	3998	-999999	841786	-3	824184	0	Run3Proc	4	1	4	RunList	5	HighLargeED	8000	0	790197	0	790197	0	790197	0	A3HighLargeEDBlockProc	n/a	n/a	n/a	n/a	n/a	n/a	5.0	1.0	5.0	n/a	n/a	n/a	n/a	n/a	n/a	Run3BlockList	6	n/a	n/a	n/a	n/a	n/a	n/a	6.0	1.0	6.0	n/a	n/a	n/a	n/a	n/a	n/a	n/a	n/a	n/a	n/a	n/a	n/a	n/a	n/a	n/a	n/a	n/a	n/a	n/a	n/a	n/a	n/a	n/a	n/a	n/a	n/a	n/a	n/a	n/a	n/a	n/a	n/a	n/a	n/a	n/a	n/a	n/a	n/a	n/a	n/a	n/a	n/a	n/a	n/a	n/a	n/a	n/a	n/a	n/a	n/a	n/a	n/a	n/a	n/a	n/a	n/a	n/a	n/a	n/a	n/a	n/a	n/a	n/a	n/a	n/a	n/a	n/a	n/a	n/a	n/a	n/a	n/a	n/a	n/a	n/a	n/a	n/a	n/a	n/a	n/a	n/a	A3_06.jpg	500	0	789697	-1	789697	0	TrialProc1	A3HighLargeEDBlockList	2500	0	787198	0	787198	0	787198	2499	d	2494	789692	122.956
134	2.5	000_R01_VB_allProc	28	1	"<?xml version=""1.0""?>\n<Clock xmlns:dt=""urn:schemas-microsoft-com:datatypes""><Description dt:dt=""string"">E-Prime Primary Realtime Clock</Description><StartTime><Timestamp dt:dt=""int"">0</Timestamp><DateUtc dt:dt=""string"">2018-08-28T22:27:52Z</DateUtc></StartTime><FrequencyChanges><FrequencyChange><Frequency dt:dt=""r8"">3020410</Frequency><Timestamp dt:dt=""r8"">4048714613</Timestamp><Current dt:dt=""r8"">0</Current><DateUtc dt:dt=""string"">2018-08-28T22:27:52Z</DateUtc></FrequencyChange></FrequencyChanges></Clock>\n"	000_R01_VB_allProc-28-1	60.022	1.0.0.185	1	-245653510	Professional	2.0.10.356	2.0.10.356	08-28-2018	n/a	18:27:52	2.0.10.252	4	0	0	664244	16	664244	3998	-999999	841786	-3	824184	0	Run3Proc	4	1	4	RunList	6	LowLargeED	8000	0	816187	0	816187	0	816187	0	C3LowLargeEDBlockProc	n/a	n/a	n/a	n/a	n/a	n/a	6.0	1.0	6.0	n/a	n/a	n/a	n/a	n/a	n/a	Run3BlockList	1	n/a	n/a	n/a	n/a	n/a	n/a	n/a	n/a	n/a	n/a	n/a	n/a	n/a	n/a	n/a	n/a	n/a	n/a	n/a	n/a	n/a	n/a	n/a	n/a	n/a	n/a	n/a	n/a	n/a	n/a	n/a	n/a	n/a	n/a	n/a	n/a	1.0	1.0	1.0	n/a	n/a	n/a	n/a	n/a	n/a	n/a	n/a	n/a	n/a	n/a	n/a	n/a	n/a	n/a	n/a	n/a	n/a	n/a	n/a	n/a	n/a	n/a	n/a	n/a	n/a	n/a	n/a	n/a	n/a	n/a	n/a	n/a	n/a	n/a	n/a	n/a	n/a	n/a	n/a	n/a	n/a	n/a	n/a	n/a	n/a	n/a	n/a	n/a	n/a	n/a	C3_01.jpg	500	0	800693	-1	800693	0	TrialProc1	C3LowLargeEDBlockList	2500	0	798194	0	798194	-3	798194	2499	d	634	798828	133.952
137	2.5	000_R01_VB_allProc	28	1	"<?xml version=""1.0""?>\n<Clock xmlns:dt=""urn:schemas-microsoft-com:datatypes""><Description dt:dt=""string"">E-Prime Primary Realtime Clock</Description><StartTime><Timestamp dt:dt=""int"">0</Timestamp><DateUtc dt:dt=""string"">2018-08-28T22:27:52Z</DateUtc></StartTime><FrequencyChanges><FrequencyChange><Frequency dt:dt=""r8"">3020410</Frequency><Timestamp dt:dt=""r8"">4048714613</Timestamp><Current dt:dt=""r8"">0</Current><DateUtc dt:dt=""string"">2018-08-28T22:27:52Z</DateUtc></FrequencyChange></FrequencyChanges></Clock>\n"	000_R01_VB_allProc-28-1	60.022	1.0.0.185	1	-245653510	Professional	2.0.10.356	2.0.10.356	08-28-2018	n/a	18:27:52	2.0.10.252	4	0	0	664244	16	664244	3998	-999999	841786	-3	824184	0	Run3Proc	4	1	4	RunList	6	LowLargeED	8000	0	816187	0	816187	0	816187	0	C3LowLargeEDBlockProc	n/a	n/a	n/a	n/a	n/a	n/a	6.0	1.0	6.0	n/a	n/a	n/a	n/a	n/a	n/a	Run3BlockList	2	n/a	n/a	n/a	n/a	n/a	n/a	n/a	n/a	n/a	n/a	n/a	n/a	n/a	n/a	n/a	n/a	n/a	n/a	n/a	n/a	n/a	n/a	n/a	n/a	n/a	n/a	n/a	n/a	n/a	n/a	n/a	n/a	n/a	n/a	n/a	n/a	2.0	1.0	2.0	n/a	n/a	n/a	n/a	n/a	n/a	n/a	n/a	n/a	n/a	n/a	n/a	n/a	n/a	n/a	n/a	n/a	n/a	n/a	n/a	n/a	n/a	n/a	n/a	n/a	n/a	n/a	n/a	n/a	n/a	n/a	n/a	n/a	n/a	n/a	n/a	n/a	n/a	n/a	n/a	n/a	n/a	n/a	n/a	n/a	n/a	n/a	n/a	n/a	n/a	n/a	C3_02.jpg	500	0	803692	-1	803692	0	TrialProc1	C3LowLargeEDBlockList	2500	0	801193	0	801193	0	801193	2499	n/a	0	0	136.951
140	2.5	000_R01_VB_allProc	28	1	"<?xml version=""1.0""?>\n<Clock xmlns:dt=""urn:schemas-microsoft-com:datatypes""><Description dt:dt=""string"">E-Prime Primary Realtime Clock</Description><StartTime><Timestamp dt:dt=""int"">0</Timestamp><DateUtc dt:dt=""string"">2018-08-28T22:27:52Z</DateUtc></StartTime><FrequencyChanges><FrequencyChange><Frequency dt:dt=""r8"">3020410</Frequency><Timestamp dt:dt=""r8"">4048714613</Timestamp><Current dt:dt=""r8"">0</Current><DateUtc dt:dt=""string"">2018-08-28T22:27:52Z</DateUtc></FrequencyChange></FrequencyChanges></Clock>\n"	000_R01_VB_allProc-28-1	60.022	1.0.0.185	1	-245653510	Professional	2.0.10.356	2.0.10.356	08-28-2018	n/a	18:27:52	2.0.10.252	4	0	0	664244	16	664244	3998	-999999	841786	-3	824184	0	Run3Proc	4	1	4	RunList	6	LowLargeED	8000	0	816187	0	816187	0	816187	0	C3LowLargeEDBlockProc	n/a	n/a	n/a	n/a	n/a	n/a	6.0	1.0	6.0	n/a	n/a	n/a	n/a	n/a	n/a	Run3BlockList	3	n/a	n/a	n/a	n/a	n/a	n/a	n/a	n/a	n/a	n/a	n/a	n/a	n/a	n/a	n/a	n/a	n/a	n/a	n/a	n/a	n/a	n/a	n/a	n/a	n/a	n/a	n/a	n/a	n/a	n/a	n/a	n/a	n/a	n/a	n/a	n/a	3.0	1.0	3.0	n/a	n/a	n/a	n/a	n/a	n/a	n/a	n/a	n/a	n/a	n/a	n/a	n/a	n/a	n/a	n/a	n/a	n/a	n/a	n/a	n/a	n/a	n/a	n/a	n/a	n/a	n/a	n/a	n/a	n/a	n/a	n/a	n/a	n/a	n/a	n/a	n/a	n/a	n/a	n/a	n/a	n/a	n/a	n/a	n/a	n/a	n/a	n/a	n/a	n/a	n/a	C3_03.jpg	500	0	806691	-1	806691	0	TrialProc1	C3LowLargeEDBlockList	2500	0	804192	0	804192	0	804192	2499	d	892	805084	139.95
143	2.5	000_R01_VB_allProc	28	1	"<?xml version=""1.0""?>\n<Clock xmlns:dt=""urn:schemas-microsoft-com:datatypes""><Description dt:dt=""string"">E-Prime Primary Realtime Clock</Description><StartTime><Timestamp dt:dt=""int"">0</Timestamp><DateUtc dt:dt=""string"">2018-08-28T22:27:52Z</DateUtc></StartTime><FrequencyChanges><FrequencyChange><Frequency dt:dt=""r8"">3020410</Frequency><Timestamp dt:dt=""r8"">4048714613</Timestamp><Current dt:dt=""r8"">0</Current><DateUtc dt:dt=""string"">2018-08-28T22:27:52Z</DateUtc></FrequencyChange></FrequencyChanges></Clock>\n"	000_R01_VB_allProc-28-1	60.022	1.0.0.185	1	-245653510	Professional	2.0.10.356	2.0.10.356	08-28-2018	n/a	18:27:52	2.0.10.252	4	0	0	664244	16	664244	3998	-999999	841786	-3	824184	0	Run3Proc	4	1	4	RunList	6	LowLargeED	8000	0	816187	0	816187	0	816187	0	C3LowLargeEDBlockProc	n/a	n/a	n/a	n/a	n/a	n/a	6.0	1.0	6.0	n/a	n/a	n/a	n/a	n/a	n/a	Run3BlockList	4	n/a	n/a	n/a	n/a	n/a	n/a	n/a	n/a	n/a	n/a	n/a	n/a	n/a	n/a	n/a	n/a	n/a	n/a	n/a	n/a	n/a	n/a	n/a	n/a	n/a	n/a	n/a	n/a	n/a	n/a	n/a	n/a	n/a	n/a	n/a	n/a	4.0	1.0	4.0	n/a	n/a	n/a	n/a	n/a	n/a	n/a	n/a	n/a	n/a	n/a	n/a	n/a	n/a	n/a	n/a	n/a	n/a	n/a	n/a	n/a	n/a	n/a	n/a	n/a	n/a	n/a	n/a	n/a	n/a	n/a	n/a	n/a	n/a	n/a	n/a	n/a	n/a	n/a	n/a	n/a	n/a	n/a	n/a	n/a	n/a	n/a	n/a	n/a	n/a	n/a	C3_04.jpg	500	0	809690	0	809690	0	TrialProc1	C3LowLargeEDBlockList	2500	1	807191	1	807191	-1	807190	2500	d	750	807940	142.948
146	2.5	000_R01_VB_allProc	28	1	"<?xml version=""1.0""?>\n<Clock xmlns:dt=""urn:schemas-microsoft-com:datatypes""><Description dt:dt=""string"">E-Prime Primary Realtime Clock</Description><StartTime><Timestamp dt:dt=""int"">0</Timestamp><DateUtc dt:dt=""string"">2018-08-28T22:27:52Z</DateUtc></StartTime><FrequencyChanges><FrequencyChange><Frequency dt:dt=""r8"">3020410</Frequency><Timestamp dt:dt=""r8"">4048714613</Timestamp><Current dt:dt=""r8"">0</Current><DateUtc dt:dt=""string"">2018-08-28T22:27:52Z</DateUtc></FrequencyChange></FrequencyChanges></Clock>\n"	000_R01_VB_allProc-28-1	60.022	1.0.0.185	1	-245653510	Professional	2.0.10.356	2.0.10.356	08-28-2018	n/a	18:27:52	2.0.10.252	4	0	0	664244	16	664244	3998	-999999	841786	-3	824184	0	Run3Proc	4	1	4	RunList	6	LowLargeED	8000	0	816187	0	816187	0	816187	0	C3LowLargeEDBlockProc	n/a	n/a	n/a	n/a	n/a	n/a	6.0	1.0	6.0	n/a	n/a	n/a	n/a	n/a	n/a	Run3BlockList	5	n/a	n/a	n/a	n/a	n/a	n/a	n/a	n/a	n/a	n/a	n/a	n/a	n/a	n/a	n/a	n/a	n/a	n/a	n/a	n/a	n/a	n/a	n/a	n/a	n/a	n/a	n/a	n/a	n/a	n/a	n/a	n/a	n/a	n/a	n/a	n/a	5.0	1.0	5.0	n/a	n/a	n/a	n/a	n/a	n/a	n/a	n/a	n/a	n/a	n/a	n/a	n/a	n/a	n/a	n/a	n/a	n/a	n/a	n/a	n/a	n/a	n/a	n/a	n/a	n/a	n/a	n/a	n/a	n/a	n/a	n/a	n/a	n/a	n/a	n/a	n/a	n/a	n/a	n/a	n/a	n/a	n/a	n/a	n/a	n/a	n/a	n/a	n/a	n/a	n/a	C3_05.jpg	500	0	812688	-1	812688	0	TrialProc1	C3LowLargeEDBlockList	2500	0	810189	0	810189	-1	810189	2499	n/a	0	0	145.947
149	2.5	000_R01_VB_allProc	28	1	"<?xml version=""1.0""?>\n<Clock xmlns:dt=""urn:schemas-microsoft-com:datatypes""><Description dt:dt=""string"">E-Prime Primary Realtime Clock</Description><StartTime><Timestamp dt:dt=""int"">0</Timestamp><DateUtc dt:dt=""string"">2018-08-28T22:27:52Z</DateUtc></StartTime><FrequencyChanges><FrequencyChange><Frequency dt:dt=""r8"">3020410</Frequency><Timestamp dt:dt=""r8"">4048714613</Timestamp><Current dt:dt=""r8"">0</Current><DateUtc dt:dt=""string"">2018-08-28T22:27:52Z</DateUtc></FrequencyChange></FrequencyChanges></Clock>\n"	000_R01_VB_allProc-28-1	60.022	1.0.0.185	1	-245653510	Professional	2.0.10.356	2.0.10.356	08-28-2018	n/a	18:27:52	2.0.10.252	4	0	0	664244	16	664244	3998	-999999	841786	-3	824184	0	Run3Proc	4	1	4	RunList	6	LowLargeED	8000	0	816187	0	816187	0	816187	0	C3LowLargeEDBlockProc	n/a	n/a	n/a	n/a	n/a	n/a	6.0	1.0	6.0	n/a	n/a	n/a	n/a	n/a	n/a	Run3BlockList	6	n/a	n/a	n/a	n/a	n/a	n/a	n/a	n/a	n/a	n/a	n/a	n/a	n/a	n/a	n/a	n/a	n/a	n/a	n/a	n/a	n/a	n/a	n/a	n/a	n/a	n/a	n/a	n/a	n/a	n/a	n/a	n/a	n/a	n/a	n/a	n/a	6.0	1.0	6.0	n/a	n/a	n/a	n/a	n/a	n/a	n/a	n/a	n/a	n/a	n/a	n/a	n/a	n/a	n/a	n/a	n/a	n/a	n/a	n/a	n/a	n/a	n/a	n/a	n/a	n/a	n/a	n/a	n/a	n/a	n/a	n/a	n/a	n/a	n/a	n/a	n/a	n/a	n/a	n/a	n/a	n/a	n/a	n/a	n/a	n/a	n/a	n/a	n/a	n/a	n/a	C3_06.jpg	500	0	815687	-1	815687	0	TrialProc1	C3LowLargeEDBlockList	2500	0	813188	0	813188	0	813188	2499	n/a	0	0	148.946
