onset	duration	experiment_name	sub	ses	clock_information	datafile_basename	display_refreshrate	experiment_version	group	randomseed	runtime_capabilities	runtime_version	runtimeversionexpected	session_date	session_start_date_time_utc	session_time	studio_version	block	fixation2trs_durationerror	fixation2trs_offsetdelay	fixation2trs_offsettime	fixation2trs_onsetdelay	fixation2trs_onsettime	fixation2trs_onsettoonsettime	goodwork_durationerror	goodwork_finishtime	goodwork_onsetdelay	goodwork_onsettime	goodwork_onsettoonsettime	procedure_block	runlist	runlist_cycle	runlist_sample	running_block	trial	condition	interblockinterval_duration	interblockinterval_durationerror	interblockinterval_finishtime	interblockinterval_offsetdelay	interblockinterval_offsettime	interblockinterval_onsetdelay	interblockinterval_onsettime	interblockinterval_onsettoonsettime	procedure_trial	run1blocklist	run1blocklist_cycle	run1blocklist_sample	run2blocklist	run2blocklist_cycle	run2blocklist_sample	run3blocklist	run3blocklist_cycle	run3blocklist_sample	run4blocklist	run4blocklist_cycle	run4blocklist_sample	run5blocklist	run5blocklist_cycle	run5blocklist_sample	running_trial	subtrial	a1highlargeedblocklist	a1highlargeedblocklist_cycle	a1highlargeedblocklist_sample	a2highlargeedblocklist	a2highlargeedblocklist_cycle	a2highlargeedblocklist_sample	a3highlargeedblocklist	a3highlargeedblocklist_cycle	a3highlargeedblocklist_sample	a4highlargeedblocklist	a4highlargeedblocklist_cycle	a4highlargeedblocklist_sample	a5highlargeedblocklist	a5highlargeedblocklist_cycle	a5highlargeedblocklist_sample	b1highsmalledblocklist	b1highsmalledblocklist_cycle	b1highsmalledblocklist_sample	b2highsmalledblocklist	b2highsmalledblocklist_cycle	b2highsmalledblocklist_sample	b3highsmalledblocklist	b3highsmalledblocklist_cycle	b3highsmalledblocklist_sample	b4highsmalledblocklist	b4highsmalledblocklist_cycle	b4highsmalledblocklist_sample	b5highsmalledblocklist	b5highsmalledblocklist_cycle	b5highsmalledblocklist_sample	c1lowlargeedblocklist	c1lowlargeedblocklist_cycle	c1lowlargeedblocklist_sample	c2lowlargeedblocklist	c2lowlargeedblocklist_cycle	c2lowlargeedblocklist_sample	c3lowlargeedblocklist	c3lowlargeedblocklist_cycle	c3lowlargeedblocklist_sample	c4lowlargeedblocklist	c4lowlargeedblocklist_cycle	c4lowlargeedblocklist_sample	c5lowlargeedblocklist	c5lowlargeedblocklist_cycle	c5lowlargeedblocklist_sample	d1lowsmalledblocklist	d1lowsmalledblocklist_cycle	d1lowsmalledblocklist_sample	d2highlargeedblocklist	d2highlargeedblocklist_cycle	d2highlargeedblocklist_sample	d3lowsmalledblocklist	d3lowsmalledblocklist_cycle	d3lowsmalledblocklist_sample	d4lowsmalledblocklist	d4lowsmalledblocklist_cycle	d4lowsmalledblocklist_sample	d5lowsmalledblocklist	d5lowsmalledblocklist_cycle	d5lowsmalledblocklist_sample	e1officelargeblocklist	e1officelargeblocklist_cycle	e1officelargeblocklist_sample	e2officelargeblocklist	e2officelargeblocklist_cycle	e2officelargeblocklist_sample	e3officelargeblocklist	e3officelargeblocklist_cycle	e3officelargeblocklist_sample	e4officelargeblocklist	e4officelargeblocklist_cycle	e4officelargeblocklist_sample	e5officelargeblocklist	e5officelargeblocklist_cycle	e5officelargeblocklist_sample	f1officesmallblocklist	f1officesmallblocklist_cycle	f1officesmallblocklist_sample	f2officesmallblocklist	f2officesmallblocklist_cycle	f2officesmallblocklist_sample	f3officesmallblocklist	f3officesmallblocklist_cycle	f3officesmallblocklist_sample	f4officesmallblocklist	f4officesmallblocklist_cycle	f4officesmallblocklist_sample	f5officesmallblocklist	f5officesmallblocklist_cycle	f5officesmallblocklist_sample	filename	isi_duration	isi_durationerror	isi_finishtime	isi_onsetdelay	isi_onsettime	isi_onsettoonsettime	procedure_subtrial	running_subtrial	stimslide_duration	stimslide_durationerror	stimslide_finishtime	stimslide_offsetdelay	stimslide_offsettime	stimslide_onsetdelay	stimslide_onsettime	stimslide_onsettoonsettime	stimslide_resp	stimslide_rt	stimslide_rttime	onset_unrounded
4	2.5	000_R01_VB_allProc	75	1	"<?xml version=""1.0""?>\n<Clock xmlns:dt=""urn:schemas-microsoft-com:datatypes""><Description dt:dt=""string"">E-Prime Primary Realtime Clock</Description><StartTime><Timestamp dt:dt=""int"">0</Timestamp><DateUtc dt:dt=""string"">2019-09-06T21:13:58Z</DateUtc></StartTime><FrequencyChanges><FrequencyChange><Frequency dt:dt=""r8"">3020380</Frequency><Timestamp dt:dt=""r8"">2364821529588</Timestamp><Current dt:dt=""r8"">0</Current><DateUtc dt:dt=""string"">2019-09-06T21:13:58Z</DateUtc></FrequencyChange></FrequencyChanges></Clock>\n"	000_R01_VB_allProc-75-1	60.022	1.0.0.185	1	-1704837752	Professional	2.0.10.356	2.0.10.356	09-06-2019	9/6/2019 9:13:58 PM	17:13:58	2.0.10.252	5	0	0	823761	18	823761	3999	-999999	989130	-3	983703	0	Run1Proc	5	1	5	RunList	1	HighLargeED	8000	0	845753	0	845753	-1	845753	0	A1HighLargeEDBlockProc	1.0	1.0	1.0	n/a	n/a	n/a	n/a	n/a	n/a	n/a	n/a	n/a	n/a	n/a	n/a	Run1BlockList	1	1.0	1.0	1.0	n/a	n/a	n/a	n/a	n/a	n/a	n/a	n/a	n/a	n/a	n/a	n/a	n/a	n/a	n/a	n/a	n/a	n/a	n/a	n/a	n/a	n/a	n/a	n/a	n/a	n/a	n/a	n/a	n/a	n/a	n/a	n/a	n/a	n/a	n/a	n/a	n/a	n/a	n/a	n/a	n/a	n/a	n/a	n/a	n/a	n/a	n/a	n/a	n/a	n/a	n/a	n/a	n/a	n/a	n/a	n/a	n/a	n/a	n/a	n/a	n/a	n/a	n/a	n/a	n/a	n/a	n/a	n/a	n/a	n/a	n/a	n/a	n/a	n/a	n/a	n/a	n/a	n/a	n/a	n/a	n/a	n/a	n/a	n/a	n/a	n/a	n/a	A1_01.jpg	500	0	830259	-1	830259	0	TrialProc1	A1HighLargeEDBlockList	2500	0	827760	0	827760	-1	827760	2499	d	1316	829076	4.0
7	2.5	000_R01_VB_allProc	75	1	"<?xml version=""1.0""?>\n<Clock xmlns:dt=""urn:schemas-microsoft-com:datatypes""><Description dt:dt=""string"">E-Prime Primary Realtime Clock</Description><StartTime><Timestamp dt:dt=""int"">0</Timestamp><DateUtc dt:dt=""string"">2019-09-06T21:13:58Z</DateUtc></StartTime><FrequencyChanges><FrequencyChange><Frequency dt:dt=""r8"">3020380</Frequency><Timestamp dt:dt=""r8"">2364821529588</Timestamp><Current dt:dt=""r8"">0</Current><DateUtc dt:dt=""string"">2019-09-06T21:13:58Z</DateUtc></FrequencyChange></FrequencyChanges></Clock>\n"	000_R01_VB_allProc-75-1	60.022	1.0.0.185	1	-1704837752	Professional	2.0.10.356	2.0.10.356	09-06-2019	9/6/2019 9:13:58 PM	17:13:58	2.0.10.252	5	0	0	823761	18	823761	3999	-999999	989130	-3	983703	0	Run1Proc	5	1	5	RunList	1	HighLargeED	8000	0	845753	0	845753	-1	845753	0	A1HighLargeEDBlockProc	1.0	1.0	1.0	n/a	n/a	n/a	n/a	n/a	n/a	n/a	n/a	n/a	n/a	n/a	n/a	Run1BlockList	2	2.0	1.0	2.0	n/a	n/a	n/a	n/a	n/a	n/a	n/a	n/a	n/a	n/a	n/a	n/a	n/a	n/a	n/a	n/a	n/a	n/a	n/a	n/a	n/a	n/a	n/a	n/a	n/a	n/a	n/a	n/a	n/a	n/a	n/a	n/a	n/a	n/a	n/a	n/a	n/a	n/a	n/a	n/a	n/a	n/a	n/a	n/a	n/a	n/a	n/a	n/a	n/a	n/a	n/a	n/a	n/a	n/a	n/a	n/a	n/a	n/a	n/a	n/a	n/a	n/a	n/a	n/a	n/a	n/a	n/a	n/a	n/a	n/a	n/a	n/a	n/a	n/a	n/a	n/a	n/a	n/a	n/a	n/a	n/a	n/a	n/a	n/a	n/a	n/a	n/a	A1_02.jpg	500	0	833258	-1	833258	0	TrialProc1	A1HighLargeEDBlockList	2500	0	830759	0	830759	0	830759	2499	d	1157	831916	6.9990000000000006
10	2.5	000_R01_VB_allProc	75	1	"<?xml version=""1.0""?>\n<Clock xmlns:dt=""urn:schemas-microsoft-com:datatypes""><Description dt:dt=""string"">E-Prime Primary Realtime Clock</Description><StartTime><Timestamp dt:dt=""int"">0</Timestamp><DateUtc dt:dt=""string"">2019-09-06T21:13:58Z</DateUtc></StartTime><FrequencyChanges><FrequencyChange><Frequency dt:dt=""r8"">3020380</Frequency><Timestamp dt:dt=""r8"">2364821529588</Timestamp><Current dt:dt=""r8"">0</Current><DateUtc dt:dt=""string"">2019-09-06T21:13:58Z</DateUtc></FrequencyChange></FrequencyChanges></Clock>\n"	000_R01_VB_allProc-75-1	60.022	1.0.0.185	1	-1704837752	Professional	2.0.10.356	2.0.10.356	09-06-2019	9/6/2019 9:13:58 PM	17:13:58	2.0.10.252	5	0	0	823761	18	823761	3999	-999999	989130	-3	983703	0	Run1Proc	5	1	5	RunList	1	HighLargeED	8000	0	845753	0	845753	-1	845753	0	A1HighLargeEDBlockProc	1.0	1.0	1.0	n/a	n/a	n/a	n/a	n/a	n/a	n/a	n/a	n/a	n/a	n/a	n/a	Run1BlockList	3	3.0	1.0	3.0	n/a	n/a	n/a	n/a	n/a	n/a	n/a	n/a	n/a	n/a	n/a	n/a	n/a	n/a	n/a	n/a	n/a	n/a	n/a	n/a	n/a	n/a	n/a	n/a	n/a	n/a	n/a	n/a	n/a	n/a	n/a	n/a	n/a	n/a	n/a	n/a	n/a	n/a	n/a	n/a	n/a	n/a	n/a	n/a	n/a	n/a	n/a	n/a	n/a	n/a	n/a	n/a	n/a	n/a	n/a	n/a	n/a	n/a	n/a	n/a	n/a	n/a	n/a	n/a	n/a	n/a	n/a	n/a	n/a	n/a	n/a	n/a	n/a	n/a	n/a	n/a	n/a	n/a	n/a	n/a	n/a	n/a	n/a	n/a	n/a	n/a	n/a	A1_03.jpg	500	0	836257	-1	836257	0	TrialProc1	A1HighLargeEDBlockList	2500	0	833758	0	833758	0	833758	2499	d	2294	836052	9.998000000000001
13	2.5	000_R01_VB_allProc	75	1	"<?xml version=""1.0""?>\n<Clock xmlns:dt=""urn:schemas-microsoft-com:datatypes""><Description dt:dt=""string"">E-Prime Primary Realtime Clock</Description><StartTime><Timestamp dt:dt=""int"">0</Timestamp><DateUtc dt:dt=""string"">2019-09-06T21:13:58Z</DateUtc></StartTime><FrequencyChanges><FrequencyChange><Frequency dt:dt=""r8"">3020380</Frequency><Timestamp dt:dt=""r8"">2364821529588</Timestamp><Current dt:dt=""r8"">0</Current><DateUtc dt:dt=""string"">2019-09-06T21:13:58Z</DateUtc></FrequencyChange></FrequencyChanges></Clock>\n"	000_R01_VB_allProc-75-1	60.022	1.0.0.185	1	-1704837752	Professional	2.0.10.356	2.0.10.356	09-06-2019	9/6/2019 9:13:58 PM	17:13:58	2.0.10.252	5	0	0	823761	18	823761	3999	-999999	989130	-3	983703	0	Run1Proc	5	1	5	RunList	1	HighLargeED	8000	0	845753	0	845753	-1	845753	0	A1HighLargeEDBlockProc	1.0	1.0	1.0	n/a	n/a	n/a	n/a	n/a	n/a	n/a	n/a	n/a	n/a	n/a	n/a	Run1BlockList	4	4.0	1.0	4.0	n/a	n/a	n/a	n/a	n/a	n/a	n/a	n/a	n/a	n/a	n/a	n/a	n/a	n/a	n/a	n/a	n/a	n/a	n/a	n/a	n/a	n/a	n/a	n/a	n/a	n/a	n/a	n/a	n/a	n/a	n/a	n/a	n/a	n/a	n/a	n/a	n/a	n/a	n/a	n/a	n/a	n/a	n/a	n/a	n/a	n/a	n/a	n/a	n/a	n/a	n/a	n/a	n/a	n/a	n/a	n/a	n/a	n/a	n/a	n/a	n/a	n/a	n/a	n/a	n/a	n/a	n/a	n/a	n/a	n/a	n/a	n/a	n/a	n/a	n/a	n/a	n/a	n/a	n/a	n/a	n/a	n/a	n/a	n/a	n/a	n/a	n/a	A1_04.jpg	500	0	839256	-1	839256	0	TrialProc1	A1HighLargeEDBlockList	2500	0	836757	0	836757	0	836757	2499	d	399	837156	12.997
16	2.5	000_R01_VB_allProc	75	1	"<?xml version=""1.0""?>\n<Clock xmlns:dt=""urn:schemas-microsoft-com:datatypes""><Description dt:dt=""string"">E-Prime Primary Realtime Clock</Description><StartTime><Timestamp dt:dt=""int"">0</Timestamp><DateUtc dt:dt=""string"">2019-09-06T21:13:58Z</DateUtc></StartTime><FrequencyChanges><FrequencyChange><Frequency dt:dt=""r8"">3020380</Frequency><Timestamp dt:dt=""r8"">2364821529588</Timestamp><Current dt:dt=""r8"">0</Current><DateUtc dt:dt=""string"">2019-09-06T21:13:58Z</DateUtc></FrequencyChange></FrequencyChanges></Clock>\n"	000_R01_VB_allProc-75-1	60.022	1.0.0.185	1	-1704837752	Professional	2.0.10.356	2.0.10.356	09-06-2019	9/6/2019 9:13:58 PM	17:13:58	2.0.10.252	5	0	0	823761	18	823761	3999	-999999	989130	-3	983703	0	Run1Proc	5	1	5	RunList	1	HighLargeED	8000	0	845753	0	845753	-1	845753	0	A1HighLargeEDBlockProc	1.0	1.0	1.0	n/a	n/a	n/a	n/a	n/a	n/a	n/a	n/a	n/a	n/a	n/a	n/a	Run1BlockList	5	5.0	1.0	5.0	n/a	n/a	n/a	n/a	n/a	n/a	n/a	n/a	n/a	n/a	n/a	n/a	n/a	n/a	n/a	n/a	n/a	n/a	n/a	n/a	n/a	n/a	n/a	n/a	n/a	n/a	n/a	n/a	n/a	n/a	n/a	n/a	n/a	n/a	n/a	n/a	n/a	n/a	n/a	n/a	n/a	n/a	n/a	n/a	n/a	n/a	n/a	n/a	n/a	n/a	n/a	n/a	n/a	n/a	n/a	n/a	n/a	n/a	n/a	n/a	n/a	n/a	n/a	n/a	n/a	n/a	n/a	n/a	n/a	n/a	n/a	n/a	n/a	n/a	n/a	n/a	n/a	n/a	n/a	n/a	n/a	n/a	n/a	n/a	n/a	n/a	n/a	A1_05.jpg	500	0	842255	-1	842255	0	TrialProc1	A1HighLargeEDBlockList	2500	0	839756	0	839756	0	839756	2499	d	816	840572	15.996
19	2.5	000_R01_VB_allProc	75	1	"<?xml version=""1.0""?>\n<Clock xmlns:dt=""urn:schemas-microsoft-com:datatypes""><Description dt:dt=""string"">E-Prime Primary Realtime Clock</Description><StartTime><Timestamp dt:dt=""int"">0</Timestamp><DateUtc dt:dt=""string"">2019-09-06T21:13:58Z</DateUtc></StartTime><FrequencyChanges><FrequencyChange><Frequency dt:dt=""r8"">3020380</Frequency><Timestamp dt:dt=""r8"">2364821529588</Timestamp><Current dt:dt=""r8"">0</Current><DateUtc dt:dt=""string"">2019-09-06T21:13:58Z</DateUtc></FrequencyChange></FrequencyChanges></Clock>\n"	000_R01_VB_allProc-75-1	60.022	1.0.0.185	1	-1704837752	Professional	2.0.10.356	2.0.10.356	09-06-2019	9/6/2019 9:13:58 PM	17:13:58	2.0.10.252	5	0	0	823761	18	823761	3999	-999999	989130	-3	983703	0	Run1Proc	5	1	5	RunList	1	HighLargeED	8000	0	845753	0	845753	-1	845753	0	A1HighLargeEDBlockProc	1.0	1.0	1.0	n/a	n/a	n/a	n/a	n/a	n/a	n/a	n/a	n/a	n/a	n/a	n/a	Run1BlockList	6	6.0	1.0	6.0	n/a	n/a	n/a	n/a	n/a	n/a	n/a	n/a	n/a	n/a	n/a	n/a	n/a	n/a	n/a	n/a	n/a	n/a	n/a	n/a	n/a	n/a	n/a	n/a	n/a	n/a	n/a	n/a	n/a	n/a	n/a	n/a	n/a	n/a	n/a	n/a	n/a	n/a	n/a	n/a	n/a	n/a	n/a	n/a	n/a	n/a	n/a	n/a	n/a	n/a	n/a	n/a	n/a	n/a	n/a	n/a	n/a	n/a	n/a	n/a	n/a	n/a	n/a	n/a	n/a	n/a	n/a	n/a	n/a	n/a	n/a	n/a	n/a	n/a	n/a	n/a	n/a	n/a	n/a	n/a	n/a	n/a	n/a	n/a	n/a	n/a	n/a	A1_06.jpg	500	0	845254	0	845254	0	TrialProc1	A1HighLargeEDBlockList	2500	1	842755	1	842755	-1	842754	2500	d	994	843748	18.994
30	2.5	000_R01_VB_allProc	75	1	"<?xml version=""1.0""?>\n<Clock xmlns:dt=""urn:schemas-microsoft-com:datatypes""><Description dt:dt=""string"">E-Prime Primary Realtime Clock</Description><StartTime><Timestamp dt:dt=""int"">0</Timestamp><DateUtc dt:dt=""string"">2019-09-06T21:13:58Z</DateUtc></StartTime><FrequencyChanges><FrequencyChange><Frequency dt:dt=""r8"">3020380</Frequency><Timestamp dt:dt=""r8"">2364821529588</Timestamp><Current dt:dt=""r8"">0</Current><DateUtc dt:dt=""string"">2019-09-06T21:13:58Z</DateUtc></FrequencyChange></FrequencyChanges></Clock>\n"	000_R01_VB_allProc-75-1	60.022	1.0.0.185	1	-1704837752	Professional	2.0.10.356	2.0.10.356	09-06-2019	9/6/2019 9:13:58 PM	17:13:58	2.0.10.252	5	0	0	823761	18	823761	3999	-999999	989130	-3	983703	0	Run1Proc	5	1	5	RunList	2	OfficeSmall	8000	0	871744	0	871744	0	871744	0	F1OfficeSmallBlockProc	2.0	1.0	2.0	n/a	n/a	n/a	n/a	n/a	n/a	n/a	n/a	n/a	n/a	n/a	n/a	Run1BlockList	1	n/a	n/a	n/a	n/a	n/a	n/a	n/a	n/a	n/a	n/a	n/a	n/a	n/a	n/a	n/a	n/a	n/a	n/a	n/a	n/a	n/a	n/a	n/a	n/a	n/a	n/a	n/a	n/a	n/a	n/a	n/a	n/a	n/a	n/a	n/a	n/a	n/a	n/a	n/a	n/a	n/a	n/a	n/a	n/a	n/a	n/a	n/a	n/a	n/a	n/a	n/a	n/a	n/a	n/a	n/a	n/a	n/a	n/a	n/a	n/a	n/a	n/a	n/a	n/a	n/a	n/a	n/a	n/a	n/a	n/a	n/a	n/a	n/a	n/a	n/a	1.0	1.0	1.0	n/a	n/a	n/a	n/a	n/a	n/a	n/a	n/a	n/a	n/a	n/a	n/a	F1_01.jpg	500	0	856250	0	856250	0	TrialProc1	F1OfficeSmallBlockList	2500	1	853751	1	853751	-3	853750	2500	c	1302	855052	29.99
33	2.5	000_R01_VB_allProc	75	1	"<?xml version=""1.0""?>\n<Clock xmlns:dt=""urn:schemas-microsoft-com:datatypes""><Description dt:dt=""string"">E-Prime Primary Realtime Clock</Description><StartTime><Timestamp dt:dt=""int"">0</Timestamp><DateUtc dt:dt=""string"">2019-09-06T21:13:58Z</DateUtc></StartTime><FrequencyChanges><FrequencyChange><Frequency dt:dt=""r8"">3020380</Frequency><Timestamp dt:dt=""r8"">2364821529588</Timestamp><Current dt:dt=""r8"">0</Current><DateUtc dt:dt=""string"">2019-09-06T21:13:58Z</DateUtc></FrequencyChange></FrequencyChanges></Clock>\n"	000_R01_VB_allProc-75-1	60.022	1.0.0.185	1	-1704837752	Professional	2.0.10.356	2.0.10.356	09-06-2019	9/6/2019 9:13:58 PM	17:13:58	2.0.10.252	5	0	0	823761	18	823761	3999	-999999	989130	-3	983703	0	Run1Proc	5	1	5	RunList	2	OfficeSmall	8000	0	871744	0	871744	0	871744	0	F1OfficeSmallBlockProc	2.0	1.0	2.0	n/a	n/a	n/a	n/a	n/a	n/a	n/a	n/a	n/a	n/a	n/a	n/a	Run1BlockList	2	n/a	n/a	n/a	n/a	n/a	n/a	n/a	n/a	n/a	n/a	n/a	n/a	n/a	n/a	n/a	n/a	n/a	n/a	n/a	n/a	n/a	n/a	n/a	n/a	n/a	n/a	n/a	n/a	n/a	n/a	n/a	n/a	n/a	n/a	n/a	n/a	n/a	n/a	n/a	n/a	n/a	n/a	n/a	n/a	n/a	n/a	n/a	n/a	n/a	n/a	n/a	n/a	n/a	n/a	n/a	n/a	n/a	n/a	n/a	n/a	n/a	n/a	n/a	n/a	n/a	n/a	n/a	n/a	n/a	n/a	n/a	n/a	n/a	n/a	n/a	2.0	1.0	2.0	n/a	n/a	n/a	n/a	n/a	n/a	n/a	n/a	n/a	n/a	n/a	n/a	F1_02.jpg	500	1	859249	-1	859248	0	TrialProc1	F1OfficeSmallBlockList	2500	0	856749	0	856749	-1	856749	2499	c	735	857484	32.989000000000004
36	2.5	000_R01_VB_allProc	75	1	"<?xml version=""1.0""?>\n<Clock xmlns:dt=""urn:schemas-microsoft-com:datatypes""><Description dt:dt=""string"">E-Prime Primary Realtime Clock</Description><StartTime><Timestamp dt:dt=""int"">0</Timestamp><DateUtc dt:dt=""string"">2019-09-06T21:13:58Z</DateUtc></StartTime><FrequencyChanges><FrequencyChange><Frequency dt:dt=""r8"">3020380</Frequency><Timestamp dt:dt=""r8"">2364821529588</Timestamp><Current dt:dt=""r8"">0</Current><DateUtc dt:dt=""string"">2019-09-06T21:13:58Z</DateUtc></FrequencyChange></FrequencyChanges></Clock>\n"	000_R01_VB_allProc-75-1	60.022	1.0.0.185	1	-1704837752	Professional	2.0.10.356	2.0.10.356	09-06-2019	9/6/2019 9:13:58 PM	17:13:58	2.0.10.252	5	0	0	823761	18	823761	3999	-999999	989130	-3	983703	0	Run1Proc	5	1	5	RunList	2	OfficeSmall	8000	0	871744	0	871744	0	871744	0	F1OfficeSmallBlockProc	2.0	1.0	2.0	n/a	n/a	n/a	n/a	n/a	n/a	n/a	n/a	n/a	n/a	n/a	n/a	Run1BlockList	3	n/a	n/a	n/a	n/a	n/a	n/a	n/a	n/a	n/a	n/a	n/a	n/a	n/a	n/a	n/a	n/a	n/a	n/a	n/a	n/a	n/a	n/a	n/a	n/a	n/a	n/a	n/a	n/a	n/a	n/a	n/a	n/a	n/a	n/a	n/a	n/a	n/a	n/a	n/a	n/a	n/a	n/a	n/a	n/a	n/a	n/a	n/a	n/a	n/a	n/a	n/a	n/a	n/a	n/a	n/a	n/a	n/a	n/a	n/a	n/a	n/a	n/a	n/a	n/a	n/a	n/a	n/a	n/a	n/a	n/a	n/a	n/a	n/a	n/a	n/a	3.0	1.0	3.0	n/a	n/a	n/a	n/a	n/a	n/a	n/a	n/a	n/a	n/a	n/a	n/a	F1_03.jpg	500	0	862247	-1	862247	0	TrialProc1	F1OfficeSmallBlockList	2500	0	859748	0	859748	0	859748	2499	c	1320	861068	35.988
39	2.5	000_R01_VB_allProc	75	1	"<?xml version=""1.0""?>\n<Clock xmlns:dt=""urn:schemas-microsoft-com:datatypes""><Description dt:dt=""string"">E-Prime Primary Realtime Clock</Description><StartTime><Timestamp dt:dt=""int"">0</Timestamp><DateUtc dt:dt=""string"">2019-09-06T21:13:58Z</DateUtc></StartTime><FrequencyChanges><FrequencyChange><Frequency dt:dt=""r8"">3020380</Frequency><Timestamp dt:dt=""r8"">2364821529588</Timestamp><Current dt:dt=""r8"">0</Current><DateUtc dt:dt=""string"">2019-09-06T21:13:58Z</DateUtc></FrequencyChange></FrequencyChanges></Clock>\n"	000_R01_VB_allProc-75-1	60.022	1.0.0.185	1	-1704837752	Professional	2.0.10.356	2.0.10.356	09-06-2019	9/6/2019 9:13:58 PM	17:13:58	2.0.10.252	5	0	0	823761	18	823761	3999	-999999	989130	-3	983703	0	Run1Proc	5	1	5	RunList	2	OfficeSmall	8000	0	871744	0	871744	0	871744	0	F1OfficeSmallBlockProc	2.0	1.0	2.0	n/a	n/a	n/a	n/a	n/a	n/a	n/a	n/a	n/a	n/a	n/a	n/a	Run1BlockList	4	n/a	n/a	n/a	n/a	n/a	n/a	n/a	n/a	n/a	n/a	n/a	n/a	n/a	n/a	n/a	n/a	n/a	n/a	n/a	n/a	n/a	n/a	n/a	n/a	n/a	n/a	n/a	n/a	n/a	n/a	n/a	n/a	n/a	n/a	n/a	n/a	n/a	n/a	n/a	n/a	n/a	n/a	n/a	n/a	n/a	n/a	n/a	n/a	n/a	n/a	n/a	n/a	n/a	n/a	n/a	n/a	n/a	n/a	n/a	n/a	n/a	n/a	n/a	n/a	n/a	n/a	n/a	n/a	n/a	n/a	n/a	n/a	n/a	n/a	n/a	4.0	1.0	4.0	n/a	n/a	n/a	n/a	n/a	n/a	n/a	n/a	n/a	n/a	n/a	n/a	F1_04.jpg	500	0	865246	-1	865246	0	TrialProc1	F1OfficeSmallBlockList	2500	0	862747	0	862747	0	862747	2499	c	1889	864636	38.987
42	2.5	000_R01_VB_allProc	75	1	"<?xml version=""1.0""?>\n<Clock xmlns:dt=""urn:schemas-microsoft-com:datatypes""><Description dt:dt=""string"">E-Prime Primary Realtime Clock</Description><StartTime><Timestamp dt:dt=""int"">0</Timestamp><DateUtc dt:dt=""string"">2019-09-06T21:13:58Z</DateUtc></StartTime><FrequencyChanges><FrequencyChange><Frequency dt:dt=""r8"">3020380</Frequency><Timestamp dt:dt=""r8"">2364821529588</Timestamp><Current dt:dt=""r8"">0</Current><DateUtc dt:dt=""string"">2019-09-06T21:13:58Z</DateUtc></FrequencyChange></FrequencyChanges></Clock>\n"	000_R01_VB_allProc-75-1	60.022	1.0.0.185	1	-1704837752	Professional	2.0.10.356	2.0.10.356	09-06-2019	9/6/2019 9:13:58 PM	17:13:58	2.0.10.252	5	0	0	823761	18	823761	3999	-999999	989130	-3	983703	0	Run1Proc	5	1	5	RunList	2	OfficeSmall	8000	0	871744	0	871744	0	871744	0	F1OfficeSmallBlockProc	2.0	1.0	2.0	n/a	n/a	n/a	n/a	n/a	n/a	n/a	n/a	n/a	n/a	n/a	n/a	Run1BlockList	5	n/a	n/a	n/a	n/a	n/a	n/a	n/a	n/a	n/a	n/a	n/a	n/a	n/a	n/a	n/a	n/a	n/a	n/a	n/a	n/a	n/a	n/a	n/a	n/a	n/a	n/a	n/a	n/a	n/a	n/a	n/a	n/a	n/a	n/a	n/a	n/a	n/a	n/a	n/a	n/a	n/a	n/a	n/a	n/a	n/a	n/a	n/a	n/a	n/a	n/a	n/a	n/a	n/a	n/a	n/a	n/a	n/a	n/a	n/a	n/a	n/a	n/a	n/a	n/a	n/a	n/a	n/a	n/a	n/a	n/a	n/a	n/a	n/a	n/a	n/a	5.0	1.0	5.0	n/a	n/a	n/a	n/a	n/a	n/a	n/a	n/a	n/a	n/a	n/a	n/a	F1_05.jpg	500	0	868245	-1	868245	0	TrialProc1	F1OfficeSmallBlockList	2500	0	865746	0	865746	0	865746	2499	c	1490	867236	41.986
45	2.5	000_R01_VB_allProc	75	1	"<?xml version=""1.0""?>\n<Clock xmlns:dt=""urn:schemas-microsoft-com:datatypes""><Description dt:dt=""string"">E-Prime Primary Realtime Clock</Description><StartTime><Timestamp dt:dt=""int"">0</Timestamp><DateUtc dt:dt=""string"">2019-09-06T21:13:58Z</DateUtc></StartTime><FrequencyChanges><FrequencyChange><Frequency dt:dt=""r8"">3020380</Frequency><Timestamp dt:dt=""r8"">2364821529588</Timestamp><Current dt:dt=""r8"">0</Current><DateUtc dt:dt=""string"">2019-09-06T21:13:58Z</DateUtc></FrequencyChange></FrequencyChanges></Clock>\n"	000_R01_VB_allProc-75-1	60.022	1.0.0.185	1	-1704837752	Professional	2.0.10.356	2.0.10.356	09-06-2019	9/6/2019 9:13:58 PM	17:13:58	2.0.10.252	5	0	0	823761	18	823761	3999	-999999	989130	-3	983703	0	Run1Proc	5	1	5	RunList	2	OfficeSmall	8000	0	871744	0	871744	0	871744	0	F1OfficeSmallBlockProc	2.0	1.0	2.0	n/a	n/a	n/a	n/a	n/a	n/a	n/a	n/a	n/a	n/a	n/a	n/a	Run1BlockList	6	n/a	n/a	n/a	n/a	n/a	n/a	n/a	n/a	n/a	n/a	n/a	n/a	n/a	n/a	n/a	n/a	n/a	n/a	n/a	n/a	n/a	n/a	n/a	n/a	n/a	n/a	n/a	n/a	n/a	n/a	n/a	n/a	n/a	n/a	n/a	n/a	n/a	n/a	n/a	n/a	n/a	n/a	n/a	n/a	n/a	n/a	n/a	n/a	n/a	n/a	n/a	n/a	n/a	n/a	n/a	n/a	n/a	n/a	n/a	n/a	n/a	n/a	n/a	n/a	n/a	n/a	n/a	n/a	n/a	n/a	n/a	n/a	n/a	n/a	n/a	6.0	1.0	6.0	n/a	n/a	n/a	n/a	n/a	n/a	n/a	n/a	n/a	n/a	n/a	n/a	F1_06.jpg	500	0	871244	-1	871244	0	TrialProc1	F1OfficeSmallBlockList	2500	0	868745	0	868745	0	868745	2499	c	1643	870388	44.985
56	2.5	000_R01_VB_allProc	75	1	"<?xml version=""1.0""?>\n<Clock xmlns:dt=""urn:schemas-microsoft-com:datatypes""><Description dt:dt=""string"">E-Prime Primary Realtime Clock</Description><StartTime><Timestamp dt:dt=""int"">0</Timestamp><DateUtc dt:dt=""string"">2019-09-06T21:13:58Z</DateUtc></StartTime><FrequencyChanges><FrequencyChange><Frequency dt:dt=""r8"">3020380</Frequency><Timestamp dt:dt=""r8"">2364821529588</Timestamp><Current dt:dt=""r8"">0</Current><DateUtc dt:dt=""string"">2019-09-06T21:13:58Z</DateUtc></FrequencyChange></FrequencyChanges></Clock>\n"	000_R01_VB_allProc-75-1	60.022	1.0.0.185	1	-1704837752	Professional	2.0.10.356	2.0.10.356	09-06-2019	9/6/2019 9:13:58 PM	17:13:58	2.0.10.252	5	0	0	823761	18	823761	3999	-999999	989130	-3	983703	0	Run1Proc	5	1	5	RunList	3	LowLargeED	8000	0	897735	0	897735	0	897735	0	C1LowLargeEDBlockProc	3.0	1.0	3.0	n/a	n/a	n/a	n/a	n/a	n/a	n/a	n/a	n/a	n/a	n/a	n/a	Run1BlockList	1	n/a	n/a	n/a	n/a	n/a	n/a	n/a	n/a	n/a	n/a	n/a	n/a	n/a	n/a	n/a	n/a	n/a	n/a	n/a	n/a	n/a	n/a	n/a	n/a	n/a	n/a	n/a	n/a	n/a	n/a	1.0	1.0	1.0	n/a	n/a	n/a	n/a	n/a	n/a	n/a	n/a	n/a	n/a	n/a	n/a	n/a	n/a	n/a	n/a	n/a	n/a	n/a	n/a	n/a	n/a	n/a	n/a	n/a	n/a	n/a	n/a	n/a	n/a	n/a	n/a	n/a	n/a	n/a	n/a	n/a	n/a	n/a	n/a	n/a	n/a	n/a	n/a	n/a	n/a	n/a	n/a	n/a	n/a	n/a	n/a	n/a	n/a	n/a	n/a	n/a	C1_01.jpg	500	0	882240	-1	882240	0	TrialProc1	C1LowLargeEDBlockList	2500	0	879741	0	879741	-3	879741	2499	c	1518	881259	55.981
59	2.5	000_R01_VB_allProc	75	1	"<?xml version=""1.0""?>\n<Clock xmlns:dt=""urn:schemas-microsoft-com:datatypes""><Description dt:dt=""string"">E-Prime Primary Realtime Clock</Description><StartTime><Timestamp dt:dt=""int"">0</Timestamp><DateUtc dt:dt=""string"">2019-09-06T21:13:58Z</DateUtc></StartTime><FrequencyChanges><FrequencyChange><Frequency dt:dt=""r8"">3020380</Frequency><Timestamp dt:dt=""r8"">2364821529588</Timestamp><Current dt:dt=""r8"">0</Current><DateUtc dt:dt=""string"">2019-09-06T21:13:58Z</DateUtc></FrequencyChange></FrequencyChanges></Clock>\n"	000_R01_VB_allProc-75-1	60.022	1.0.0.185	1	-1704837752	Professional	2.0.10.356	2.0.10.356	09-06-2019	9/6/2019 9:13:58 PM	17:13:58	2.0.10.252	5	0	0	823761	18	823761	3999	-999999	989130	-3	983703	0	Run1Proc	5	1	5	RunList	3	LowLargeED	8000	0	897735	0	897735	0	897735	0	C1LowLargeEDBlockProc	3.0	1.0	3.0	n/a	n/a	n/a	n/a	n/a	n/a	n/a	n/a	n/a	n/a	n/a	n/a	Run1BlockList	2	n/a	n/a	n/a	n/a	n/a	n/a	n/a	n/a	n/a	n/a	n/a	n/a	n/a	n/a	n/a	n/a	n/a	n/a	n/a	n/a	n/a	n/a	n/a	n/a	n/a	n/a	n/a	n/a	n/a	n/a	2.0	1.0	2.0	n/a	n/a	n/a	n/a	n/a	n/a	n/a	n/a	n/a	n/a	n/a	n/a	n/a	n/a	n/a	n/a	n/a	n/a	n/a	n/a	n/a	n/a	n/a	n/a	n/a	n/a	n/a	n/a	n/a	n/a	n/a	n/a	n/a	n/a	n/a	n/a	n/a	n/a	n/a	n/a	n/a	n/a	n/a	n/a	n/a	n/a	n/a	n/a	n/a	n/a	n/a	n/a	n/a	n/a	n/a	n/a	n/a	C1_02.jpg	500	0	885239	-1	885239	0	TrialProc1	C1LowLargeEDBlockList	2500	0	882740	0	882740	0	882740	2499	c	903	883643	58.98
62	2.5	000_R01_VB_allProc	75	1	"<?xml version=""1.0""?>\n<Clock xmlns:dt=""urn:schemas-microsoft-com:datatypes""><Description dt:dt=""string"">E-Prime Primary Realtime Clock</Description><StartTime><Timestamp dt:dt=""int"">0</Timestamp><DateUtc dt:dt=""string"">2019-09-06T21:13:58Z</DateUtc></StartTime><FrequencyChanges><FrequencyChange><Frequency dt:dt=""r8"">3020380</Frequency><Timestamp dt:dt=""r8"">2364821529588</Timestamp><Current dt:dt=""r8"">0</Current><DateUtc dt:dt=""string"">2019-09-06T21:13:58Z</DateUtc></FrequencyChange></FrequencyChanges></Clock>\n"	000_R01_VB_allProc-75-1	60.022	1.0.0.185	1	-1704837752	Professional	2.0.10.356	2.0.10.356	09-06-2019	9/6/2019 9:13:58 PM	17:13:58	2.0.10.252	5	0	0	823761	18	823761	3999	-999999	989130	-3	983703	0	Run1Proc	5	1	5	RunList	3	LowLargeED	8000	0	897735	0	897735	0	897735	0	C1LowLargeEDBlockProc	3.0	1.0	3.0	n/a	n/a	n/a	n/a	n/a	n/a	n/a	n/a	n/a	n/a	n/a	n/a	Run1BlockList	3	n/a	n/a	n/a	n/a	n/a	n/a	n/a	n/a	n/a	n/a	n/a	n/a	n/a	n/a	n/a	n/a	n/a	n/a	n/a	n/a	n/a	n/a	n/a	n/a	n/a	n/a	n/a	n/a	n/a	n/a	3.0	1.0	3.0	n/a	n/a	n/a	n/a	n/a	n/a	n/a	n/a	n/a	n/a	n/a	n/a	n/a	n/a	n/a	n/a	n/a	n/a	n/a	n/a	n/a	n/a	n/a	n/a	n/a	n/a	n/a	n/a	n/a	n/a	n/a	n/a	n/a	n/a	n/a	n/a	n/a	n/a	n/a	n/a	n/a	n/a	n/a	n/a	n/a	n/a	n/a	n/a	n/a	n/a	n/a	n/a	n/a	n/a	n/a	n/a	n/a	C1_03.jpg	500	0	888238	-1	888238	0	TrialProc1	C1LowLargeEDBlockList	2500	0	885739	0	885739	0	885739	2499	c	1128	886867	61.979
65	2.5	000_R01_VB_allProc	75	1	"<?xml version=""1.0""?>\n<Clock xmlns:dt=""urn:schemas-microsoft-com:datatypes""><Description dt:dt=""string"">E-Prime Primary Realtime Clock</Description><StartTime><Timestamp dt:dt=""int"">0</Timestamp><DateUtc dt:dt=""string"">2019-09-06T21:13:58Z</DateUtc></StartTime><FrequencyChanges><FrequencyChange><Frequency dt:dt=""r8"">3020380</Frequency><Timestamp dt:dt=""r8"">2364821529588</Timestamp><Current dt:dt=""r8"">0</Current><DateUtc dt:dt=""string"">2019-09-06T21:13:58Z</DateUtc></FrequencyChange></FrequencyChanges></Clock>\n"	000_R01_VB_allProc-75-1	60.022	1.0.0.185	1	-1704837752	Professional	2.0.10.356	2.0.10.356	09-06-2019	9/6/2019 9:13:58 PM	17:13:58	2.0.10.252	5	0	0	823761	18	823761	3999	-999999	989130	-3	983703	0	Run1Proc	5	1	5	RunList	3	LowLargeED	8000	0	897735	0	897735	0	897735	0	C1LowLargeEDBlockProc	3.0	1.0	3.0	n/a	n/a	n/a	n/a	n/a	n/a	n/a	n/a	n/a	n/a	n/a	n/a	Run1BlockList	4	n/a	n/a	n/a	n/a	n/a	n/a	n/a	n/a	n/a	n/a	n/a	n/a	n/a	n/a	n/a	n/a	n/a	n/a	n/a	n/a	n/a	n/a	n/a	n/a	n/a	n/a	n/a	n/a	n/a	n/a	4.0	1.0	4.0	n/a	n/a	n/a	n/a	n/a	n/a	n/a	n/a	n/a	n/a	n/a	n/a	n/a	n/a	n/a	n/a	n/a	n/a	n/a	n/a	n/a	n/a	n/a	n/a	n/a	n/a	n/a	n/a	n/a	n/a	n/a	n/a	n/a	n/a	n/a	n/a	n/a	n/a	n/a	n/a	n/a	n/a	n/a	n/a	n/a	n/a	n/a	n/a	n/a	n/a	n/a	n/a	n/a	n/a	n/a	n/a	n/a	C1_04.jpg	500	0	891237	-1	891237	0	TrialProc1	C1LowLargeEDBlockList	2500	0	888738	0	888738	0	888738	2499	d	1521	890259	64.97800000000001
68	2.5	000_R01_VB_allProc	75	1	"<?xml version=""1.0""?>\n<Clock xmlns:dt=""urn:schemas-microsoft-com:datatypes""><Description dt:dt=""string"">E-Prime Primary Realtime Clock</Description><StartTime><Timestamp dt:dt=""int"">0</Timestamp><DateUtc dt:dt=""string"">2019-09-06T21:13:58Z</DateUtc></StartTime><FrequencyChanges><FrequencyChange><Frequency dt:dt=""r8"">3020380</Frequency><Timestamp dt:dt=""r8"">2364821529588</Timestamp><Current dt:dt=""r8"">0</Current><DateUtc dt:dt=""string"">2019-09-06T21:13:58Z</DateUtc></FrequencyChange></FrequencyChanges></Clock>\n"	000_R01_VB_allProc-75-1	60.022	1.0.0.185	1	-1704837752	Professional	2.0.10.356	2.0.10.356	09-06-2019	9/6/2019 9:13:58 PM	17:13:58	2.0.10.252	5	0	0	823761	18	823761	3999	-999999	989130	-3	983703	0	Run1Proc	5	1	5	RunList	3	LowLargeED	8000	0	897735	0	897735	0	897735	0	C1LowLargeEDBlockProc	3.0	1.0	3.0	n/a	n/a	n/a	n/a	n/a	n/a	n/a	n/a	n/a	n/a	n/a	n/a	Run1BlockList	5	n/a	n/a	n/a	n/a	n/a	n/a	n/a	n/a	n/a	n/a	n/a	n/a	n/a	n/a	n/a	n/a	n/a	n/a	n/a	n/a	n/a	n/a	n/a	n/a	n/a	n/a	n/a	n/a	n/a	n/a	5.0	1.0	5.0	n/a	n/a	n/a	n/a	n/a	n/a	n/a	n/a	n/a	n/a	n/a	n/a	n/a	n/a	n/a	n/a	n/a	n/a	n/a	n/a	n/a	n/a	n/a	n/a	n/a	n/a	n/a	n/a	n/a	n/a	n/a	n/a	n/a	n/a	n/a	n/a	n/a	n/a	n/a	n/a	n/a	n/a	n/a	n/a	n/a	n/a	n/a	n/a	n/a	n/a	n/a	n/a	n/a	n/a	n/a	n/a	n/a	C1_05.jpg	500	0	894236	-1	894236	0	TrialProc1	C1LowLargeEDBlockList	2500	0	891737	0	891737	0	891737	2499	c	1074	892811	67.977
71	2.5	000_R01_VB_allProc	75	1	"<?xml version=""1.0""?>\n<Clock xmlns:dt=""urn:schemas-microsoft-com:datatypes""><Description dt:dt=""string"">E-Prime Primary Realtime Clock</Description><StartTime><Timestamp dt:dt=""int"">0</Timestamp><DateUtc dt:dt=""string"">2019-09-06T21:13:58Z</DateUtc></StartTime><FrequencyChanges><FrequencyChange><Frequency dt:dt=""r8"">3020380</Frequency><Timestamp dt:dt=""r8"">2364821529588</Timestamp><Current dt:dt=""r8"">0</Current><DateUtc dt:dt=""string"">2019-09-06T21:13:58Z</DateUtc></FrequencyChange></FrequencyChanges></Clock>\n"	000_R01_VB_allProc-75-1	60.022	1.0.0.185	1	-1704837752	Professional	2.0.10.356	2.0.10.356	09-06-2019	9/6/2019 9:13:58 PM	17:13:58	2.0.10.252	5	0	0	823761	18	823761	3999	-999999	989130	-3	983703	0	Run1Proc	5	1	5	RunList	3	LowLargeED	8000	0	897735	0	897735	0	897735	0	C1LowLargeEDBlockProc	3.0	1.0	3.0	n/a	n/a	n/a	n/a	n/a	n/a	n/a	n/a	n/a	n/a	n/a	n/a	Run1BlockList	6	n/a	n/a	n/a	n/a	n/a	n/a	n/a	n/a	n/a	n/a	n/a	n/a	n/a	n/a	n/a	n/a	n/a	n/a	n/a	n/a	n/a	n/a	n/a	n/a	n/a	n/a	n/a	n/a	n/a	n/a	6.0	1.0	6.0	n/a	n/a	n/a	n/a	n/a	n/a	n/a	n/a	n/a	n/a	n/a	n/a	n/a	n/a	n/a	n/a	n/a	n/a	n/a	n/a	n/a	n/a	n/a	n/a	n/a	n/a	n/a	n/a	n/a	n/a	n/a	n/a	n/a	n/a	n/a	n/a	n/a	n/a	n/a	n/a	n/a	n/a	n/a	n/a	n/a	n/a	n/a	n/a	n/a	n/a	n/a	n/a	n/a	n/a	n/a	n/a	n/a	C1_06.jpg	500	0	897235	-1	897235	0	TrialProc1	C1LowLargeEDBlockList	2500	0	894736	0	894736	0	894736	2499	c	547	895283	70.976
82	2.5	000_R01_VB_allProc	75	1	"<?xml version=""1.0""?>\n<Clock xmlns:dt=""urn:schemas-microsoft-com:datatypes""><Description dt:dt=""string"">E-Prime Primary Realtime Clock</Description><StartTime><Timestamp dt:dt=""int"">0</Timestamp><DateUtc dt:dt=""string"">2019-09-06T21:13:58Z</DateUtc></StartTime><FrequencyChanges><FrequencyChange><Frequency dt:dt=""r8"">3020380</Frequency><Timestamp dt:dt=""r8"">2364821529588</Timestamp><Current dt:dt=""r8"">0</Current><DateUtc dt:dt=""string"">2019-09-06T21:13:58Z</DateUtc></FrequencyChange></FrequencyChanges></Clock>\n"	000_R01_VB_allProc-75-1	60.022	1.0.0.185	1	-1704837752	Professional	2.0.10.356	2.0.10.356	09-06-2019	9/6/2019 9:13:58 PM	17:13:58	2.0.10.252	5	0	0	823761	18	823761	3999	-999999	989130	-3	983703	0	Run1Proc	5	1	5	RunList	4	LowSmallED	8000	0	923725	0	923725	0	923725	0	D1LowSmallEDBlockProc	4.0	1.0	4.0	n/a	n/a	n/a	n/a	n/a	n/a	n/a	n/a	n/a	n/a	n/a	n/a	Run1BlockList	1	n/a	n/a	n/a	n/a	n/a	n/a	n/a	n/a	n/a	n/a	n/a	n/a	n/a	n/a	n/a	n/a	n/a	n/a	n/a	n/a	n/a	n/a	n/a	n/a	n/a	n/a	n/a	n/a	n/a	n/a	n/a	n/a	n/a	n/a	n/a	n/a	n/a	n/a	n/a	n/a	n/a	n/a	n/a	n/a	n/a	1.0	1.0	1.0	n/a	n/a	n/a	n/a	n/a	n/a	n/a	n/a	n/a	n/a	n/a	n/a	n/a	n/a	n/a	n/a	n/a	n/a	n/a	n/a	n/a	n/a	n/a	n/a	n/a	n/a	n/a	n/a	n/a	n/a	n/a	n/a	n/a	n/a	n/a	n/a	n/a	n/a	n/a	n/a	n/a	n/a	D1_01.jpg	500	0	908231	-1	908231	0	TrialProc1	D1LowSmallEDBlockList	2500	0	905732	0	905732	-3	905732	2499	c	1975	907707	81.972
85	2.5	000_R01_VB_allProc	75	1	"<?xml version=""1.0""?>\n<Clock xmlns:dt=""urn:schemas-microsoft-com:datatypes""><Description dt:dt=""string"">E-Prime Primary Realtime Clock</Description><StartTime><Timestamp dt:dt=""int"">0</Timestamp><DateUtc dt:dt=""string"">2019-09-06T21:13:58Z</DateUtc></StartTime><FrequencyChanges><FrequencyChange><Frequency dt:dt=""r8"">3020380</Frequency><Timestamp dt:dt=""r8"">2364821529588</Timestamp><Current dt:dt=""r8"">0</Current><DateUtc dt:dt=""string"">2019-09-06T21:13:58Z</DateUtc></FrequencyChange></FrequencyChanges></Clock>\n"	000_R01_VB_allProc-75-1	60.022	1.0.0.185	1	-1704837752	Professional	2.0.10.356	2.0.10.356	09-06-2019	9/6/2019 9:13:58 PM	17:13:58	2.0.10.252	5	0	0	823761	18	823761	3999	-999999	989130	-3	983703	0	Run1Proc	5	1	5	RunList	4	LowSmallED	8000	0	923725	0	923725	0	923725	0	D1LowSmallEDBlockProc	4.0	1.0	4.0	n/a	n/a	n/a	n/a	n/a	n/a	n/a	n/a	n/a	n/a	n/a	n/a	Run1BlockList	2	n/a	n/a	n/a	n/a	n/a	n/a	n/a	n/a	n/a	n/a	n/a	n/a	n/a	n/a	n/a	n/a	n/a	n/a	n/a	n/a	n/a	n/a	n/a	n/a	n/a	n/a	n/a	n/a	n/a	n/a	n/a	n/a	n/a	n/a	n/a	n/a	n/a	n/a	n/a	n/a	n/a	n/a	n/a	n/a	n/a	2.0	1.0	2.0	n/a	n/a	n/a	n/a	n/a	n/a	n/a	n/a	n/a	n/a	n/a	n/a	n/a	n/a	n/a	n/a	n/a	n/a	n/a	n/a	n/a	n/a	n/a	n/a	n/a	n/a	n/a	n/a	n/a	n/a	n/a	n/a	n/a	n/a	n/a	n/a	n/a	n/a	n/a	n/a	n/a	n/a	D1_02.jpg	500	0	911230	0	911230	0	TrialProc1	D1LowSmallEDBlockList	2500	1	908731	1	908731	-1	908730	2500	c	1017	909747	84.97
88	2.5	000_R01_VB_allProc	75	1	"<?xml version=""1.0""?>\n<Clock xmlns:dt=""urn:schemas-microsoft-com:datatypes""><Description dt:dt=""string"">E-Prime Primary Realtime Clock</Description><StartTime><Timestamp dt:dt=""int"">0</Timestamp><DateUtc dt:dt=""string"">2019-09-06T21:13:58Z</DateUtc></StartTime><FrequencyChanges><FrequencyChange><Frequency dt:dt=""r8"">3020380</Frequency><Timestamp dt:dt=""r8"">2364821529588</Timestamp><Current dt:dt=""r8"">0</Current><DateUtc dt:dt=""string"">2019-09-06T21:13:58Z</DateUtc></FrequencyChange></FrequencyChanges></Clock>\n"	000_R01_VB_allProc-75-1	60.022	1.0.0.185	1	-1704837752	Professional	2.0.10.356	2.0.10.356	09-06-2019	9/6/2019 9:13:58 PM	17:13:58	2.0.10.252	5	0	0	823761	18	823761	3999	-999999	989130	-3	983703	0	Run1Proc	5	1	5	RunList	4	LowSmallED	8000	0	923725	0	923725	0	923725	0	D1LowSmallEDBlockProc	4.0	1.0	4.0	n/a	n/a	n/a	n/a	n/a	n/a	n/a	n/a	n/a	n/a	n/a	n/a	Run1BlockList	3	n/a	n/a	n/a	n/a	n/a	n/a	n/a	n/a	n/a	n/a	n/a	n/a	n/a	n/a	n/a	n/a	n/a	n/a	n/a	n/a	n/a	n/a	n/a	n/a	n/a	n/a	n/a	n/a	n/a	n/a	n/a	n/a	n/a	n/a	n/a	n/a	n/a	n/a	n/a	n/a	n/a	n/a	n/a	n/a	n/a	3.0	1.0	3.0	n/a	n/a	n/a	n/a	n/a	n/a	n/a	n/a	n/a	n/a	n/a	n/a	n/a	n/a	n/a	n/a	n/a	n/a	n/a	n/a	n/a	n/a	n/a	n/a	n/a	n/a	n/a	n/a	n/a	n/a	n/a	n/a	n/a	n/a	n/a	n/a	n/a	n/a	n/a	n/a	n/a	n/a	D1_03.jpg	500	0	914229	0	914229	0	TrialProc1	D1LowSmallEDBlockList	2500	0	911730	0	911729	-1	911729	2500	c	690	912419	87.969
91	2.5	000_R01_VB_allProc	75	1	"<?xml version=""1.0""?>\n<Clock xmlns:dt=""urn:schemas-microsoft-com:datatypes""><Description dt:dt=""string"">E-Prime Primary Realtime Clock</Description><StartTime><Timestamp dt:dt=""int"">0</Timestamp><DateUtc dt:dt=""string"">2019-09-06T21:13:58Z</DateUtc></StartTime><FrequencyChanges><FrequencyChange><Frequency dt:dt=""r8"">3020380</Frequency><Timestamp dt:dt=""r8"">2364821529588</Timestamp><Current dt:dt=""r8"">0</Current><DateUtc dt:dt=""string"">2019-09-06T21:13:58Z</DateUtc></FrequencyChange></FrequencyChanges></Clock>\n"	000_R01_VB_allProc-75-1	60.022	1.0.0.185	1	-1704837752	Professional	2.0.10.356	2.0.10.356	09-06-2019	9/6/2019 9:13:58 PM	17:13:58	2.0.10.252	5	0	0	823761	18	823761	3999	-999999	989130	-3	983703	0	Run1Proc	5	1	5	RunList	4	LowSmallED	8000	0	923725	0	923725	0	923725	0	D1LowSmallEDBlockProc	4.0	1.0	4.0	n/a	n/a	n/a	n/a	n/a	n/a	n/a	n/a	n/a	n/a	n/a	n/a	Run1BlockList	4	n/a	n/a	n/a	n/a	n/a	n/a	n/a	n/a	n/a	n/a	n/a	n/a	n/a	n/a	n/a	n/a	n/a	n/a	n/a	n/a	n/a	n/a	n/a	n/a	n/a	n/a	n/a	n/a	n/a	n/a	n/a	n/a	n/a	n/a	n/a	n/a	n/a	n/a	n/a	n/a	n/a	n/a	n/a	n/a	n/a	4.0	1.0	4.0	n/a	n/a	n/a	n/a	n/a	n/a	n/a	n/a	n/a	n/a	n/a	n/a	n/a	n/a	n/a	n/a	n/a	n/a	n/a	n/a	n/a	n/a	n/a	n/a	n/a	n/a	n/a	n/a	n/a	n/a	n/a	n/a	n/a	n/a	n/a	n/a	n/a	n/a	n/a	n/a	n/a	n/a	D1_04.jpg	500	1	917228	-1	917227	0	TrialProc1	D1LowSmallEDBlockList	2500	0	914728	0	914728	-1	914728	2499	c	843	915571	90.968
94	2.5	000_R01_VB_allProc	75	1	"<?xml version=""1.0""?>\n<Clock xmlns:dt=""urn:schemas-microsoft-com:datatypes""><Description dt:dt=""string"">E-Prime Primary Realtime Clock</Description><StartTime><Timestamp dt:dt=""int"">0</Timestamp><DateUtc dt:dt=""string"">2019-09-06T21:13:58Z</DateUtc></StartTime><FrequencyChanges><FrequencyChange><Frequency dt:dt=""r8"">3020380</Frequency><Timestamp dt:dt=""r8"">2364821529588</Timestamp><Current dt:dt=""r8"">0</Current><DateUtc dt:dt=""string"">2019-09-06T21:13:58Z</DateUtc></FrequencyChange></FrequencyChanges></Clock>\n"	000_R01_VB_allProc-75-1	60.022	1.0.0.185	1	-1704837752	Professional	2.0.10.356	2.0.10.356	09-06-2019	9/6/2019 9:13:58 PM	17:13:58	2.0.10.252	5	0	0	823761	18	823761	3999	-999999	989130	-3	983703	0	Run1Proc	5	1	5	RunList	4	LowSmallED	8000	0	923725	0	923725	0	923725	0	D1LowSmallEDBlockProc	4.0	1.0	4.0	n/a	n/a	n/a	n/a	n/a	n/a	n/a	n/a	n/a	n/a	n/a	n/a	Run1BlockList	5	n/a	n/a	n/a	n/a	n/a	n/a	n/a	n/a	n/a	n/a	n/a	n/a	n/a	n/a	n/a	n/a	n/a	n/a	n/a	n/a	n/a	n/a	n/a	n/a	n/a	n/a	n/a	n/a	n/a	n/a	n/a	n/a	n/a	n/a	n/a	n/a	n/a	n/a	n/a	n/a	n/a	n/a	n/a	n/a	n/a	5.0	1.0	5.0	n/a	n/a	n/a	n/a	n/a	n/a	n/a	n/a	n/a	n/a	n/a	n/a	n/a	n/a	n/a	n/a	n/a	n/a	n/a	n/a	n/a	n/a	n/a	n/a	n/a	n/a	n/a	n/a	n/a	n/a	n/a	n/a	n/a	n/a	n/a	n/a	n/a	n/a	n/a	n/a	n/a	n/a	D1_05.jpg	500	0	920226	-1	920226	0	TrialProc1	D1LowSmallEDBlockList	2500	0	917727	0	917727	0	917727	2499	c	428	918155	93.967
97	2.5	000_R01_VB_allProc	75	1	"<?xml version=""1.0""?>\n<Clock xmlns:dt=""urn:schemas-microsoft-com:datatypes""><Description dt:dt=""string"">E-Prime Primary Realtime Clock</Description><StartTime><Timestamp dt:dt=""int"">0</Timestamp><DateUtc dt:dt=""string"">2019-09-06T21:13:58Z</DateUtc></StartTime><FrequencyChanges><FrequencyChange><Frequency dt:dt=""r8"">3020380</Frequency><Timestamp dt:dt=""r8"">2364821529588</Timestamp><Current dt:dt=""r8"">0</Current><DateUtc dt:dt=""string"">2019-09-06T21:13:58Z</DateUtc></FrequencyChange></FrequencyChanges></Clock>\n"	000_R01_VB_allProc-75-1	60.022	1.0.0.185	1	-1704837752	Professional	2.0.10.356	2.0.10.356	09-06-2019	9/6/2019 9:13:58 PM	17:13:58	2.0.10.252	5	0	0	823761	18	823761	3999	-999999	989130	-3	983703	0	Run1Proc	5	1	5	RunList	4	LowSmallED	8000	0	923725	0	923725	0	923725	0	D1LowSmallEDBlockProc	4.0	1.0	4.0	n/a	n/a	n/a	n/a	n/a	n/a	n/a	n/a	n/a	n/a	n/a	n/a	Run1BlockList	6	n/a	n/a	n/a	n/a	n/a	n/a	n/a	n/a	n/a	n/a	n/a	n/a	n/a	n/a	n/a	n/a	n/a	n/a	n/a	n/a	n/a	n/a	n/a	n/a	n/a	n/a	n/a	n/a	n/a	n/a	n/a	n/a	n/a	n/a	n/a	n/a	n/a	n/a	n/a	n/a	n/a	n/a	n/a	n/a	n/a	6.0	1.0	6.0	n/a	n/a	n/a	n/a	n/a	n/a	n/a	n/a	n/a	n/a	n/a	n/a	n/a	n/a	n/a	n/a	n/a	n/a	n/a	n/a	n/a	n/a	n/a	n/a	n/a	n/a	n/a	n/a	n/a	n/a	n/a	n/a	n/a	n/a	n/a	n/a	n/a	n/a	n/a	n/a	n/a	n/a	D1_06.jpg	500	0	923225	-1	923225	0	TrialProc1	D1LowSmallEDBlockList	2500	0	920726	0	920726	0	920726	2499	c	317	921043	96.966
108	2.5	000_R01_VB_allProc	75	1	"<?xml version=""1.0""?>\n<Clock xmlns:dt=""urn:schemas-microsoft-com:datatypes""><Description dt:dt=""string"">E-Prime Primary Realtime Clock</Description><StartTime><Timestamp dt:dt=""int"">0</Timestamp><DateUtc dt:dt=""string"">2019-09-06T21:13:58Z</DateUtc></StartTime><FrequencyChanges><FrequencyChange><Frequency dt:dt=""r8"">3020380</Frequency><Timestamp dt:dt=""r8"">2364821529588</Timestamp><Current dt:dt=""r8"">0</Current><DateUtc dt:dt=""string"">2019-09-06T21:13:58Z</DateUtc></FrequencyChange></FrequencyChanges></Clock>\n"	000_R01_VB_allProc-75-1	60.022	1.0.0.185	1	-1704837752	Professional	2.0.10.356	2.0.10.356	09-06-2019	9/6/2019 9:13:58 PM	17:13:58	2.0.10.252	5	0	0	823761	18	823761	3999	-999999	989130	-3	983703	0	Run1Proc	5	1	5	RunList	5	OfficeLarge	8000	0	949716	0	949716	0	949716	0	E1OfficeLargeBlockProc	5.0	1.0	5.0	n/a	n/a	n/a	n/a	n/a	n/a	n/a	n/a	n/a	n/a	n/a	n/a	Run1BlockList	1	n/a	n/a	n/a	n/a	n/a	n/a	n/a	n/a	n/a	n/a	n/a	n/a	n/a	n/a	n/a	n/a	n/a	n/a	n/a	n/a	n/a	n/a	n/a	n/a	n/a	n/a	n/a	n/a	n/a	n/a	n/a	n/a	n/a	n/a	n/a	n/a	n/a	n/a	n/a	n/a	n/a	n/a	n/a	n/a	n/a	n/a	n/a	n/a	n/a	n/a	n/a	n/a	n/a	n/a	n/a	n/a	n/a	n/a	n/a	n/a	1.0	1.0	1.0	n/a	n/a	n/a	n/a	n/a	n/a	n/a	n/a	n/a	n/a	n/a	n/a	n/a	n/a	n/a	n/a	n/a	n/a	n/a	n/a	n/a	n/a	n/a	n/a	n/a	n/a	n/a	E1_01.jpg	500	0	934221	-1	934221	0	TrialProc1	E1OfficeLargeBlockList	2500	0	931722	0	931722	-3	931722	2499	c	1177	932899	107.962
111	2.5	000_R01_VB_allProc	75	1	"<?xml version=""1.0""?>\n<Clock xmlns:dt=""urn:schemas-microsoft-com:datatypes""><Description dt:dt=""string"">E-Prime Primary Realtime Clock</Description><StartTime><Timestamp dt:dt=""int"">0</Timestamp><DateUtc dt:dt=""string"">2019-09-06T21:13:58Z</DateUtc></StartTime><FrequencyChanges><FrequencyChange><Frequency dt:dt=""r8"">3020380</Frequency><Timestamp dt:dt=""r8"">2364821529588</Timestamp><Current dt:dt=""r8"">0</Current><DateUtc dt:dt=""string"">2019-09-06T21:13:58Z</DateUtc></FrequencyChange></FrequencyChanges></Clock>\n"	000_R01_VB_allProc-75-1	60.022	1.0.0.185	1	-1704837752	Professional	2.0.10.356	2.0.10.356	09-06-2019	9/6/2019 9:13:58 PM	17:13:58	2.0.10.252	5	0	0	823761	18	823761	3999	-999999	989130	-3	983703	0	Run1Proc	5	1	5	RunList	5	OfficeLarge	8000	0	949716	0	949716	0	949716	0	E1OfficeLargeBlockProc	5.0	1.0	5.0	n/a	n/a	n/a	n/a	n/a	n/a	n/a	n/a	n/a	n/a	n/a	n/a	Run1BlockList	2	n/a	n/a	n/a	n/a	n/a	n/a	n/a	n/a	n/a	n/a	n/a	n/a	n/a	n/a	n/a	n/a	n/a	n/a	n/a	n/a	n/a	n/a	n/a	n/a	n/a	n/a	n/a	n/a	n/a	n/a	n/a	n/a	n/a	n/a	n/a	n/a	n/a	n/a	n/a	n/a	n/a	n/a	n/a	n/a	n/a	n/a	n/a	n/a	n/a	n/a	n/a	n/a	n/a	n/a	n/a	n/a	n/a	n/a	n/a	n/a	2.0	1.0	2.0	n/a	n/a	n/a	n/a	n/a	n/a	n/a	n/a	n/a	n/a	n/a	n/a	n/a	n/a	n/a	n/a	n/a	n/a	n/a	n/a	n/a	n/a	n/a	n/a	n/a	n/a	n/a	E1_02.jpg	500	0	937220	-1	937220	0	TrialProc1	E1OfficeLargeBlockList	2500	0	934721	0	934721	0	934721	2499	n/a	0	0	110.961
114	2.5	000_R01_VB_allProc	75	1	"<?xml version=""1.0""?>\n<Clock xmlns:dt=""urn:schemas-microsoft-com:datatypes""><Description dt:dt=""string"">E-Prime Primary Realtime Clock</Description><StartTime><Timestamp dt:dt=""int"">0</Timestamp><DateUtc dt:dt=""string"">2019-09-06T21:13:58Z</DateUtc></StartTime><FrequencyChanges><FrequencyChange><Frequency dt:dt=""r8"">3020380</Frequency><Timestamp dt:dt=""r8"">2364821529588</Timestamp><Current dt:dt=""r8"">0</Current><DateUtc dt:dt=""string"">2019-09-06T21:13:58Z</DateUtc></FrequencyChange></FrequencyChanges></Clock>\n"	000_R01_VB_allProc-75-1	60.022	1.0.0.185	1	-1704837752	Professional	2.0.10.356	2.0.10.356	09-06-2019	9/6/2019 9:13:58 PM	17:13:58	2.0.10.252	5	0	0	823761	18	823761	3999	-999999	989130	-3	983703	0	Run1Proc	5	1	5	RunList	5	OfficeLarge	8000	0	949716	0	949716	0	949716	0	E1OfficeLargeBlockProc	5.0	1.0	5.0	n/a	n/a	n/a	n/a	n/a	n/a	n/a	n/a	n/a	n/a	n/a	n/a	Run1BlockList	3	n/a	n/a	n/a	n/a	n/a	n/a	n/a	n/a	n/a	n/a	n/a	n/a	n/a	n/a	n/a	n/a	n/a	n/a	n/a	n/a	n/a	n/a	n/a	n/a	n/a	n/a	n/a	n/a	n/a	n/a	n/a	n/a	n/a	n/a	n/a	n/a	n/a	n/a	n/a	n/a	n/a	n/a	n/a	n/a	n/a	n/a	n/a	n/a	n/a	n/a	n/a	n/a	n/a	n/a	n/a	n/a	n/a	n/a	n/a	n/a	3.0	1.0	3.0	n/a	n/a	n/a	n/a	n/a	n/a	n/a	n/a	n/a	n/a	n/a	n/a	n/a	n/a	n/a	n/a	n/a	n/a	n/a	n/a	n/a	n/a	n/a	n/a	n/a	n/a	n/a	E1_03.jpg	500	0	940219	-1	940219	0	TrialProc1	E1OfficeLargeBlockList	2500	0	937720	0	937720	0	937720	2499	c	1451	939171	113.96
117	2.5	000_R01_VB_allProc	75	1	"<?xml version=""1.0""?>\n<Clock xmlns:dt=""urn:schemas-microsoft-com:datatypes""><Description dt:dt=""string"">E-Prime Primary Realtime Clock</Description><StartTime><Timestamp dt:dt=""int"">0</Timestamp><DateUtc dt:dt=""string"">2019-09-06T21:13:58Z</DateUtc></StartTime><FrequencyChanges><FrequencyChange><Frequency dt:dt=""r8"">3020380</Frequency><Timestamp dt:dt=""r8"">2364821529588</Timestamp><Current dt:dt=""r8"">0</Current><DateUtc dt:dt=""string"">2019-09-06T21:13:58Z</DateUtc></FrequencyChange></FrequencyChanges></Clock>\n"	000_R01_VB_allProc-75-1	60.022	1.0.0.185	1	-1704837752	Professional	2.0.10.356	2.0.10.356	09-06-2019	9/6/2019 9:13:58 PM	17:13:58	2.0.10.252	5	0	0	823761	18	823761	3999	-999999	989130	-3	983703	0	Run1Proc	5	1	5	RunList	5	OfficeLarge	8000	0	949716	0	949716	0	949716	0	E1OfficeLargeBlockProc	5.0	1.0	5.0	n/a	n/a	n/a	n/a	n/a	n/a	n/a	n/a	n/a	n/a	n/a	n/a	Run1BlockList	4	n/a	n/a	n/a	n/a	n/a	n/a	n/a	n/a	n/a	n/a	n/a	n/a	n/a	n/a	n/a	n/a	n/a	n/a	n/a	n/a	n/a	n/a	n/a	n/a	n/a	n/a	n/a	n/a	n/a	n/a	n/a	n/a	n/a	n/a	n/a	n/a	n/a	n/a	n/a	n/a	n/a	n/a	n/a	n/a	n/a	n/a	n/a	n/a	n/a	n/a	n/a	n/a	n/a	n/a	n/a	n/a	n/a	n/a	n/a	n/a	4.0	1.0	4.0	n/a	n/a	n/a	n/a	n/a	n/a	n/a	n/a	n/a	n/a	n/a	n/a	n/a	n/a	n/a	n/a	n/a	n/a	n/a	n/a	n/a	n/a	n/a	n/a	n/a	n/a	n/a	E1_04.jpg	500	0	943218	-1	943218	0	TrialProc1	E1OfficeLargeBlockList	2500	0	940719	0	940719	0	940719	2499	c	1036	941755	116.959
120	2.5	000_R01_VB_allProc	75	1	"<?xml version=""1.0""?>\n<Clock xmlns:dt=""urn:schemas-microsoft-com:datatypes""><Description dt:dt=""string"">E-Prime Primary Realtime Clock</Description><StartTime><Timestamp dt:dt=""int"">0</Timestamp><DateUtc dt:dt=""string"">2019-09-06T21:13:58Z</DateUtc></StartTime><FrequencyChanges><FrequencyChange><Frequency dt:dt=""r8"">3020380</Frequency><Timestamp dt:dt=""r8"">2364821529588</Timestamp><Current dt:dt=""r8"">0</Current><DateUtc dt:dt=""string"">2019-09-06T21:13:58Z</DateUtc></FrequencyChange></FrequencyChanges></Clock>\n"	000_R01_VB_allProc-75-1	60.022	1.0.0.185	1	-1704837752	Professional	2.0.10.356	2.0.10.356	09-06-2019	9/6/2019 9:13:58 PM	17:13:58	2.0.10.252	5	0	0	823761	18	823761	3999	-999999	989130	-3	983703	0	Run1Proc	5	1	5	RunList	5	OfficeLarge	8000	0	949716	0	949716	0	949716	0	E1OfficeLargeBlockProc	5.0	1.0	5.0	n/a	n/a	n/a	n/a	n/a	n/a	n/a	n/a	n/a	n/a	n/a	n/a	Run1BlockList	5	n/a	n/a	n/a	n/a	n/a	n/a	n/a	n/a	n/a	n/a	n/a	n/a	n/a	n/a	n/a	n/a	n/a	n/a	n/a	n/a	n/a	n/a	n/a	n/a	n/a	n/a	n/a	n/a	n/a	n/a	n/a	n/a	n/a	n/a	n/a	n/a	n/a	n/a	n/a	n/a	n/a	n/a	n/a	n/a	n/a	n/a	n/a	n/a	n/a	n/a	n/a	n/a	n/a	n/a	n/a	n/a	n/a	n/a	n/a	n/a	5.0	1.0	5.0	n/a	n/a	n/a	n/a	n/a	n/a	n/a	n/a	n/a	n/a	n/a	n/a	n/a	n/a	n/a	n/a	n/a	n/a	n/a	n/a	n/a	n/a	n/a	n/a	n/a	n/a	n/a	E1_05.jpg	500	0	946217	-1	946217	0	TrialProc1	E1OfficeLargeBlockList	2500	0	943718	0	943718	0	943718	2499	c	1741	945459	119.958
123	2.5	000_R01_VB_allProc	75	1	"<?xml version=""1.0""?>\n<Clock xmlns:dt=""urn:schemas-microsoft-com:datatypes""><Description dt:dt=""string"">E-Prime Primary Realtime Clock</Description><StartTime><Timestamp dt:dt=""int"">0</Timestamp><DateUtc dt:dt=""string"">2019-09-06T21:13:58Z</DateUtc></StartTime><FrequencyChanges><FrequencyChange><Frequency dt:dt=""r8"">3020380</Frequency><Timestamp dt:dt=""r8"">2364821529588</Timestamp><Current dt:dt=""r8"">0</Current><DateUtc dt:dt=""string"">2019-09-06T21:13:58Z</DateUtc></FrequencyChange></FrequencyChanges></Clock>\n"	000_R01_VB_allProc-75-1	60.022	1.0.0.185	1	-1704837752	Professional	2.0.10.356	2.0.10.356	09-06-2019	9/6/2019 9:13:58 PM	17:13:58	2.0.10.252	5	0	0	823761	18	823761	3999	-999999	989130	-3	983703	0	Run1Proc	5	1	5	RunList	5	OfficeLarge	8000	0	949716	0	949716	0	949716	0	E1OfficeLargeBlockProc	5.0	1.0	5.0	n/a	n/a	n/a	n/a	n/a	n/a	n/a	n/a	n/a	n/a	n/a	n/a	Run1BlockList	6	n/a	n/a	n/a	n/a	n/a	n/a	n/a	n/a	n/a	n/a	n/a	n/a	n/a	n/a	n/a	n/a	n/a	n/a	n/a	n/a	n/a	n/a	n/a	n/a	n/a	n/a	n/a	n/a	n/a	n/a	n/a	n/a	n/a	n/a	n/a	n/a	n/a	n/a	n/a	n/a	n/a	n/a	n/a	n/a	n/a	n/a	n/a	n/a	n/a	n/a	n/a	n/a	n/a	n/a	n/a	n/a	n/a	n/a	n/a	n/a	6.0	1.0	6.0	n/a	n/a	n/a	n/a	n/a	n/a	n/a	n/a	n/a	n/a	n/a	n/a	n/a	n/a	n/a	n/a	n/a	n/a	n/a	n/a	n/a	n/a	n/a	n/a	n/a	n/a	n/a	E1_06.jpg	500	0	949216	-1	949216	0	TrialProc1	E1OfficeLargeBlockList	2500	0	946717	0	946717	0	946717	2499	c	1382	948099	122.957
134	2.5	000_R01_VB_allProc	75	1	"<?xml version=""1.0""?>\n<Clock xmlns:dt=""urn:schemas-microsoft-com:datatypes""><Description dt:dt=""string"">E-Prime Primary Realtime Clock</Description><StartTime><Timestamp dt:dt=""int"">0</Timestamp><DateUtc dt:dt=""string"">2019-09-06T21:13:58Z</DateUtc></StartTime><FrequencyChanges><FrequencyChange><Frequency dt:dt=""r8"">3020380</Frequency><Timestamp dt:dt=""r8"">2364821529588</Timestamp><Current dt:dt=""r8"">0</Current><DateUtc dt:dt=""string"">2019-09-06T21:13:58Z</DateUtc></FrequencyChange></FrequencyChanges></Clock>\n"	000_R01_VB_allProc-75-1	60.022	1.0.0.185	1	-1704837752	Professional	2.0.10.356	2.0.10.356	09-06-2019	9/6/2019 9:13:58 PM	17:13:58	2.0.10.252	5	0	0	823761	18	823761	3999	-999999	989130	-3	983703	0	Run1Proc	5	1	5	RunList	6	HighSmallED	8000	0	975706	0	975706	0	975706	0	B1HighSmallEDBlockProc	6.0	1.0	6.0	n/a	n/a	n/a	n/a	n/a	n/a	n/a	n/a	n/a	n/a	n/a	n/a	Run1BlockList	1	n/a	n/a	n/a	n/a	n/a	n/a	n/a	n/a	n/a	n/a	n/a	n/a	n/a	n/a	n/a	1.0	1.0	1.0	n/a	n/a	n/a	n/a	n/a	n/a	n/a	n/a	n/a	n/a	n/a	n/a	n/a	n/a	n/a	n/a	n/a	n/a	n/a	n/a	n/a	n/a	n/a	n/a	n/a	n/a	n/a	n/a	n/a	n/a	n/a	n/a	n/a	n/a	n/a	n/a	n/a	n/a	n/a	n/a	n/a	n/a	n/a	n/a	n/a	n/a	n/a	n/a	n/a	n/a	n/a	n/a	n/a	n/a	n/a	n/a	n/a	n/a	n/a	n/a	n/a	n/a	n/a	n/a	n/a	n/a	n/a	n/a	n/a	n/a	n/a	n/a	B1_01.jpg	500	0	960212	-1	960212	0	TrialProc1	B1HighSmallEDBlockList	2500	0	957713	0	957713	-3	957713	2499	d	1586	959299	133.953
137	2.5	000_R01_VB_allProc	75	1	"<?xml version=""1.0""?>\n<Clock xmlns:dt=""urn:schemas-microsoft-com:datatypes""><Description dt:dt=""string"">E-Prime Primary Realtime Clock</Description><StartTime><Timestamp dt:dt=""int"">0</Timestamp><DateUtc dt:dt=""string"">2019-09-06T21:13:58Z</DateUtc></StartTime><FrequencyChanges><FrequencyChange><Frequency dt:dt=""r8"">3020380</Frequency><Timestamp dt:dt=""r8"">2364821529588</Timestamp><Current dt:dt=""r8"">0</Current><DateUtc dt:dt=""string"">2019-09-06T21:13:58Z</DateUtc></FrequencyChange></FrequencyChanges></Clock>\n"	000_R01_VB_allProc-75-1	60.022	1.0.0.185	1	-1704837752	Professional	2.0.10.356	2.0.10.356	09-06-2019	9/6/2019 9:13:58 PM	17:13:58	2.0.10.252	5	0	0	823761	18	823761	3999	-999999	989130	-3	983703	0	Run1Proc	5	1	5	RunList	6	HighSmallED	8000	0	975706	0	975706	0	975706	0	B1HighSmallEDBlockProc	6.0	1.0	6.0	n/a	n/a	n/a	n/a	n/a	n/a	n/a	n/a	n/a	n/a	n/a	n/a	Run1BlockList	2	n/a	n/a	n/a	n/a	n/a	n/a	n/a	n/a	n/a	n/a	n/a	n/a	n/a	n/a	n/a	2.0	1.0	2.0	n/a	n/a	n/a	n/a	n/a	n/a	n/a	n/a	n/a	n/a	n/a	n/a	n/a	n/a	n/a	n/a	n/a	n/a	n/a	n/a	n/a	n/a	n/a	n/a	n/a	n/a	n/a	n/a	n/a	n/a	n/a	n/a	n/a	n/a	n/a	n/a	n/a	n/a	n/a	n/a	n/a	n/a	n/a	n/a	n/a	n/a	n/a	n/a	n/a	n/a	n/a	n/a	n/a	n/a	n/a	n/a	n/a	n/a	n/a	n/a	n/a	n/a	n/a	n/a	n/a	n/a	n/a	n/a	n/a	n/a	n/a	n/a	B1_02.jpg	500	0	963211	-1	963211	0	TrialProc1	B1HighSmallEDBlockList	2500	0	960712	0	960712	0	960712	2499	d	859	961571	136.952
140	2.5	000_R01_VB_allProc	75	1	"<?xml version=""1.0""?>\n<Clock xmlns:dt=""urn:schemas-microsoft-com:datatypes""><Description dt:dt=""string"">E-Prime Primary Realtime Clock</Description><StartTime><Timestamp dt:dt=""int"">0</Timestamp><DateUtc dt:dt=""string"">2019-09-06T21:13:58Z</DateUtc></StartTime><FrequencyChanges><FrequencyChange><Frequency dt:dt=""r8"">3020380</Frequency><Timestamp dt:dt=""r8"">2364821529588</Timestamp><Current dt:dt=""r8"">0</Current><DateUtc dt:dt=""string"">2019-09-06T21:13:58Z</DateUtc></FrequencyChange></FrequencyChanges></Clock>\n"	000_R01_VB_allProc-75-1	60.022	1.0.0.185	1	-1704837752	Professional	2.0.10.356	2.0.10.356	09-06-2019	9/6/2019 9:13:58 PM	17:13:58	2.0.10.252	5	0	0	823761	18	823761	3999	-999999	989130	-3	983703	0	Run1Proc	5	1	5	RunList	6	HighSmallED	8000	0	975706	0	975706	0	975706	0	B1HighSmallEDBlockProc	6.0	1.0	6.0	n/a	n/a	n/a	n/a	n/a	n/a	n/a	n/a	n/a	n/a	n/a	n/a	Run1BlockList	3	n/a	n/a	n/a	n/a	n/a	n/a	n/a	n/a	n/a	n/a	n/a	n/a	n/a	n/a	n/a	3.0	1.0	3.0	n/a	n/a	n/a	n/a	n/a	n/a	n/a	n/a	n/a	n/a	n/a	n/a	n/a	n/a	n/a	n/a	n/a	n/a	n/a	n/a	n/a	n/a	n/a	n/a	n/a	n/a	n/a	n/a	n/a	n/a	n/a	n/a	n/a	n/a	n/a	n/a	n/a	n/a	n/a	n/a	n/a	n/a	n/a	n/a	n/a	n/a	n/a	n/a	n/a	n/a	n/a	n/a	n/a	n/a	n/a	n/a	n/a	n/a	n/a	n/a	n/a	n/a	n/a	n/a	n/a	n/a	n/a	n/a	n/a	n/a	n/a	n/a	B1_03.jpg	500	0	966210	-1	966210	0	TrialProc1	B1HighSmallEDBlockList	2500	0	963711	0	963711	0	963711	2499	d	388	964099	139.951
143	2.5	000_R01_VB_allProc	75	1	"<?xml version=""1.0""?>\n<Clock xmlns:dt=""urn:schemas-microsoft-com:datatypes""><Description dt:dt=""string"">E-Prime Primary Realtime Clock</Description><StartTime><Timestamp dt:dt=""int"">0</Timestamp><DateUtc dt:dt=""string"">2019-09-06T21:13:58Z</DateUtc></StartTime><FrequencyChanges><FrequencyChange><Frequency dt:dt=""r8"">3020380</Frequency><Timestamp dt:dt=""r8"">2364821529588</Timestamp><Current dt:dt=""r8"">0</Current><DateUtc dt:dt=""string"">2019-09-06T21:13:58Z</DateUtc></FrequencyChange></FrequencyChanges></Clock>\n"	000_R01_VB_allProc-75-1	60.022	1.0.0.185	1	-1704837752	Professional	2.0.10.356	2.0.10.356	09-06-2019	9/6/2019 9:13:58 PM	17:13:58	2.0.10.252	5	0	0	823761	18	823761	3999	-999999	989130	-3	983703	0	Run1Proc	5	1	5	RunList	6	HighSmallED	8000	0	975706	0	975706	0	975706	0	B1HighSmallEDBlockProc	6.0	1.0	6.0	n/a	n/a	n/a	n/a	n/a	n/a	n/a	n/a	n/a	n/a	n/a	n/a	Run1BlockList	4	n/a	n/a	n/a	n/a	n/a	n/a	n/a	n/a	n/a	n/a	n/a	n/a	n/a	n/a	n/a	4.0	1.0	4.0	n/a	n/a	n/a	n/a	n/a	n/a	n/a	n/a	n/a	n/a	n/a	n/a	n/a	n/a	n/a	n/a	n/a	n/a	n/a	n/a	n/a	n/a	n/a	n/a	n/a	n/a	n/a	n/a	n/a	n/a	n/a	n/a	n/a	n/a	n/a	n/a	n/a	n/a	n/a	n/a	n/a	n/a	n/a	n/a	n/a	n/a	n/a	n/a	n/a	n/a	n/a	n/a	n/a	n/a	n/a	n/a	n/a	n/a	n/a	n/a	n/a	n/a	n/a	n/a	n/a	n/a	n/a	n/a	n/a	n/a	n/a	n/a	B1_04.jpg	500	0	969209	0	969209	0	TrialProc1	B1HighSmallEDBlockList	2500	1	966710	1	966710	-1	966709	2500	d	494	967203	142.949
146	2.5	000_R01_VB_allProc	75	1	"<?xml version=""1.0""?>\n<Clock xmlns:dt=""urn:schemas-microsoft-com:datatypes""><Description dt:dt=""string"">E-Prime Primary Realtime Clock</Description><StartTime><Timestamp dt:dt=""int"">0</Timestamp><DateUtc dt:dt=""string"">2019-09-06T21:13:58Z</DateUtc></StartTime><FrequencyChanges><FrequencyChange><Frequency dt:dt=""r8"">3020380</Frequency><Timestamp dt:dt=""r8"">2364821529588</Timestamp><Current dt:dt=""r8"">0</Current><DateUtc dt:dt=""string"">2019-09-06T21:13:58Z</DateUtc></FrequencyChange></FrequencyChanges></Clock>\n"	000_R01_VB_allProc-75-1	60.022	1.0.0.185	1	-1704837752	Professional	2.0.10.356	2.0.10.356	09-06-2019	9/6/2019 9:13:58 PM	17:13:58	2.0.10.252	5	0	0	823761	18	823761	3999	-999999	989130	-3	983703	0	Run1Proc	5	1	5	RunList	6	HighSmallED	8000	0	975706	0	975706	0	975706	0	B1HighSmallEDBlockProc	6.0	1.0	6.0	n/a	n/a	n/a	n/a	n/a	n/a	n/a	n/a	n/a	n/a	n/a	n/a	Run1BlockList	5	n/a	n/a	n/a	n/a	n/a	n/a	n/a	n/a	n/a	n/a	n/a	n/a	n/a	n/a	n/a	5.0	1.0	5.0	n/a	n/a	n/a	n/a	n/a	n/a	n/a	n/a	n/a	n/a	n/a	n/a	n/a	n/a	n/a	n/a	n/a	n/a	n/a	n/a	n/a	n/a	n/a	n/a	n/a	n/a	n/a	n/a	n/a	n/a	n/a	n/a	n/a	n/a	n/a	n/a	n/a	n/a	n/a	n/a	n/a	n/a	n/a	n/a	n/a	n/a	n/a	n/a	n/a	n/a	n/a	n/a	n/a	n/a	n/a	n/a	n/a	n/a	n/a	n/a	n/a	n/a	n/a	n/a	n/a	n/a	n/a	n/a	n/a	n/a	n/a	n/a	B1_05.jpg	500	1	972208	-1	972207	0	TrialProc1	B1HighSmallEDBlockList	2500	0	969708	0	969708	-1	969708	2499	d	815	970523	145.948
149	2.5	000_R01_VB_allProc	75	1	"<?xml version=""1.0""?>\n<Clock xmlns:dt=""urn:schemas-microsoft-com:datatypes""><Description dt:dt=""string"">E-Prime Primary Realtime Clock</Description><StartTime><Timestamp dt:dt=""int"">0</Timestamp><DateUtc dt:dt=""string"">2019-09-06T21:13:58Z</DateUtc></StartTime><FrequencyChanges><FrequencyChange><Frequency dt:dt=""r8"">3020380</Frequency><Timestamp dt:dt=""r8"">2364821529588</Timestamp><Current dt:dt=""r8"">0</Current><DateUtc dt:dt=""string"">2019-09-06T21:13:58Z</DateUtc></FrequencyChange></FrequencyChanges></Clock>\n"	000_R01_VB_allProc-75-1	60.022	1.0.0.185	1	-1704837752	Professional	2.0.10.356	2.0.10.356	09-06-2019	9/6/2019 9:13:58 PM	17:13:58	2.0.10.252	5	0	0	823761	18	823761	3999	-999999	989130	-3	983703	0	Run1Proc	5	1	5	RunList	6	HighSmallED	8000	0	975706	0	975706	0	975706	0	B1HighSmallEDBlockProc	6.0	1.0	6.0	n/a	n/a	n/a	n/a	n/a	n/a	n/a	n/a	n/a	n/a	n/a	n/a	Run1BlockList	6	n/a	n/a	n/a	n/a	n/a	n/a	n/a	n/a	n/a	n/a	n/a	n/a	n/a	n/a	n/a	6.0	1.0	6.0	n/a	n/a	n/a	n/a	n/a	n/a	n/a	n/a	n/a	n/a	n/a	n/a	n/a	n/a	n/a	n/a	n/a	n/a	n/a	n/a	n/a	n/a	n/a	n/a	n/a	n/a	n/a	n/a	n/a	n/a	n/a	n/a	n/a	n/a	n/a	n/a	n/a	n/a	n/a	n/a	n/a	n/a	n/a	n/a	n/a	n/a	n/a	n/a	n/a	n/a	n/a	n/a	n/a	n/a	n/a	n/a	n/a	n/a	n/a	n/a	n/a	n/a	n/a	n/a	n/a	n/a	n/a	n/a	n/a	n/a	n/a	n/a	B1_06.jpg	500	0	975206	-1	975206	0	TrialProc1	B1HighSmallEDBlockList	2500	0	972707	0	972707	0	972707	2499	d	1048	973755	148.947
