onset	duration	experiment_name	sub	ses	clock_information	datafile_basename	display_refreshrate	experiment_version	group	randomseed	runtime_capabilities	runtime_version	runtimeversionexpected	session_date	session_start_date_time_utc	session_time	studio_version	block	fixation2trs_durationerror	fixation2trs_offsetdelay	fixation2trs_offsettime	fixation2trs_onsetdelay	fixation2trs_onsettime	fixation2trs_onsettoonsettime	goodwork_durationerror	goodwork_finishtime	goodwork_onsetdelay	goodwork_onsettime	goodwork_onsettoonsettime	procedure_block	runlist	runlist_cycle	runlist_sample	running_block	trial	condition	interblockinterval_duration	interblockinterval_durationerror	interblockinterval_finishtime	interblockinterval_offsetdelay	interblockinterval_offsettime	interblockinterval_onsetdelay	interblockinterval_onsettime	interblockinterval_onsettoonsettime	procedure_trial	run1blocklist	run1blocklist_cycle	run1blocklist_sample	run2blocklist	run2blocklist_cycle	run2blocklist_sample	run3blocklist	run3blocklist_cycle	run3blocklist_sample	run4blocklist	run4blocklist_cycle	run4blocklist_sample	run5blocklist	run5blocklist_cycle	run5blocklist_sample	running_trial	subtrial	a1highlargeedblocklist	a1highlargeedblocklist_cycle	a1highlargeedblocklist_sample	a2highlargeedblocklist	a2highlargeedblocklist_cycle	a2highlargeedblocklist_sample	a3highlargeedblocklist	a3highlargeedblocklist_cycle	a3highlargeedblocklist_sample	a4highlargeedblocklist	a4highlargeedblocklist_cycle	a4highlargeedblocklist_sample	a5highlargeedblocklist	a5highlargeedblocklist_cycle	a5highlargeedblocklist_sample	b1highsmalledblocklist	b1highsmalledblocklist_cycle	b1highsmalledblocklist_sample	b2highsmalledblocklist	b2highsmalledblocklist_cycle	b2highsmalledblocklist_sample	b3highsmalledblocklist	b3highsmalledblocklist_cycle	b3highsmalledblocklist_sample	b4highsmalledblocklist	b4highsmalledblocklist_cycle	b4highsmalledblocklist_sample	b5highsmalledblocklist	b5highsmalledblocklist_cycle	b5highsmalledblocklist_sample	c1lowlargeedblocklist	c1lowlargeedblocklist_cycle	c1lowlargeedblocklist_sample	c2lowlargeedblocklist	c2lowlargeedblocklist_cycle	c2lowlargeedblocklist_sample	c3lowlargeedblocklist	c3lowlargeedblocklist_cycle	c3lowlargeedblocklist_sample	c4lowlargeedblocklist	c4lowlargeedblocklist_cycle	c4lowlargeedblocklist_sample	c5lowlargeedblocklist	c5lowlargeedblocklist_cycle	c5lowlargeedblocklist_sample	d1lowsmalledblocklist	d1lowsmalledblocklist_cycle	d1lowsmalledblocklist_sample	d2highlargeedblocklist	d2highlargeedblocklist_cycle	d2highlargeedblocklist_sample	d3lowsmalledblocklist	d3lowsmalledblocklist_cycle	d3lowsmalledblocklist_sample	d4lowsmalledblocklist	d4lowsmalledblocklist_cycle	d4lowsmalledblocklist_sample	d5lowsmalledblocklist	d5lowsmalledblocklist_cycle	d5lowsmalledblocklist_sample	e1officelargeblocklist	e1officelargeblocklist_cycle	e1officelargeblocklist_sample	e2officelargeblocklist	e2officelargeblocklist_cycle	e2officelargeblocklist_sample	e3officelargeblocklist	e3officelargeblocklist_cycle	e3officelargeblocklist_sample	e4officelargeblocklist	e4officelargeblocklist_cycle	e4officelargeblocklist_sample	e5officelargeblocklist	e5officelargeblocklist_cycle	e5officelargeblocklist_sample	f1officesmallblocklist	f1officesmallblocklist_cycle	f1officesmallblocklist_sample	f2officesmallblocklist	f2officesmallblocklist_cycle	f2officesmallblocklist_sample	f3officesmallblocklist	f3officesmallblocklist_cycle	f3officesmallblocklist_sample	f4officesmallblocklist	f4officesmallblocklist_cycle	f4officesmallblocklist_sample	f5officesmallblocklist	f5officesmallblocklist_cycle	f5officesmallblocklist_sample	filename	isi_duration	isi_durationerror	isi_finishtime	isi_onsetdelay	isi_onsettime	isi_onsettoonsettime	procedure_subtrial	running_subtrial	stimslide_duration	stimslide_durationerror	stimslide_finishtime	stimslide_offsetdelay	stimslide_offsettime	stimslide_onsetdelay	stimslide_onsettime	stimslide_onsettoonsettime	stimslide_resp	stimslide_rt	stimslide_rttime	onset_unrounded
4	2.5	000_R01_VB_allProc	4	1	"<?xml version=""1.0""?>\n<Clock xmlns:dt=""urn:schemas-microsoft-com:datatypes""><Description dt:dt=""string"">E-Prime Primary Realtime Clock</Description><StartTime><Timestamp dt:dt=""int"">0</Timestamp><DateUtc dt:dt=""string"">2018-06-14T23:27:22Z</DateUtc></StartTime><FrequencyChanges><FrequencyChange><Frequency dt:dt=""r8"">3020419</Frequency><Timestamp dt:dt=""r8"">82288893538</Timestamp><Current dt:dt=""r8"">0</Current><DateUtc dt:dt=""string"">2018-06-14T23:27:22Z</DateUtc></FrequencyChange></FrequencyChanges></Clock>\n"	000_R01_VB_allProc-004-1	60.024	1.0.0.182	1	685109619	Professional	2.0.10.356	2.0.10.356	06-14-2018	n/a	19:27:22	2.0.10.252	2	0	0	259591	21	259591	3999	-999999	431464	-3	419531	0	Run5Proc	2	1	2	RunList	1	LowLargeED	8000.0	0.0	281583.0	0.0	281583.0	0.0	281583.0	0.0	C5LowLargeEDBlockProc	n/a	n/a	n/a	n/a	n/a	n/a	n/a	n/a	n/a	n/a	n/a	n/a	1.0	1.0	1.0	Run5BlockList	1	n/a	n/a	n/a	n/a	n/a	n/a	n/a	n/a	n/a	n/a	n/a	n/a	n/a	n/a	n/a	n/a	n/a	n/a	n/a	n/a	n/a	n/a	n/a	n/a	n/a	n/a	n/a	n/a	n/a	n/a	n/a	n/a	n/a	n/a	n/a	n/a	n/a	n/a	n/a	n/a	n/a	n/a	1.0	1.0	1.0	n/a	n/a	n/a	n/a	n/a	n/a	n/a	n/a	n/a	n/a	n/a	n/a	n/a	n/a	n/a	n/a	n/a	n/a	n/a	n/a	n/a	n/a	n/a	n/a	n/a	n/a	n/a	n/a	n/a	n/a	n/a	n/a	n/a	n/a	n/a	n/a	n/a	n/a	n/a	n/a	n/a	n/a	n/a	n/a	n/a	C5_01.jpg	500	0	266089	-1	266089	0	TrialProc1	C5LowLargeEDBlockList	2500	0	263590	0	263590	-1	263590	2499	d	911	264501	4.0
7	2.5	000_R01_VB_allProc	4	1	"<?xml version=""1.0""?>\n<Clock xmlns:dt=""urn:schemas-microsoft-com:datatypes""><Description dt:dt=""string"">E-Prime Primary Realtime Clock</Description><StartTime><Timestamp dt:dt=""int"">0</Timestamp><DateUtc dt:dt=""string"">2018-06-14T23:27:22Z</DateUtc></StartTime><FrequencyChanges><FrequencyChange><Frequency dt:dt=""r8"">3020419</Frequency><Timestamp dt:dt=""r8"">82288893538</Timestamp><Current dt:dt=""r8"">0</Current><DateUtc dt:dt=""string"">2018-06-14T23:27:22Z</DateUtc></FrequencyChange></FrequencyChanges></Clock>\n"	000_R01_VB_allProc-004-1	60.024	1.0.0.182	1	685109619	Professional	2.0.10.356	2.0.10.356	06-14-2018	n/a	19:27:22	2.0.10.252	2	0	0	259591	21	259591	3999	-999999	431464	-3	419531	0	Run5Proc	2	1	2	RunList	1	LowLargeED	8000.0	0.0	281583.0	0.0	281583.0	0.0	281583.0	0.0	C5LowLargeEDBlockProc	n/a	n/a	n/a	n/a	n/a	n/a	n/a	n/a	n/a	n/a	n/a	n/a	1.0	1.0	1.0	Run5BlockList	2	n/a	n/a	n/a	n/a	n/a	n/a	n/a	n/a	n/a	n/a	n/a	n/a	n/a	n/a	n/a	n/a	n/a	n/a	n/a	n/a	n/a	n/a	n/a	n/a	n/a	n/a	n/a	n/a	n/a	n/a	n/a	n/a	n/a	n/a	n/a	n/a	n/a	n/a	n/a	n/a	n/a	n/a	2.0	1.0	2.0	n/a	n/a	n/a	n/a	n/a	n/a	n/a	n/a	n/a	n/a	n/a	n/a	n/a	n/a	n/a	n/a	n/a	n/a	n/a	n/a	n/a	n/a	n/a	n/a	n/a	n/a	n/a	n/a	n/a	n/a	n/a	n/a	n/a	n/a	n/a	n/a	n/a	n/a	n/a	n/a	n/a	n/a	n/a	n/a	n/a	C5_02.jpg	500	0	269088	-1	269088	0	TrialProc1	C5LowLargeEDBlockList	2500	0	266589	0	266589	0	266589	2499	d	864	267453	6.9990000000000006
10	2.5	000_R01_VB_allProc	4	1	"<?xml version=""1.0""?>\n<Clock xmlns:dt=""urn:schemas-microsoft-com:datatypes""><Description dt:dt=""string"">E-Prime Primary Realtime Clock</Description><StartTime><Timestamp dt:dt=""int"">0</Timestamp><DateUtc dt:dt=""string"">2018-06-14T23:27:22Z</DateUtc></StartTime><FrequencyChanges><FrequencyChange><Frequency dt:dt=""r8"">3020419</Frequency><Timestamp dt:dt=""r8"">82288893538</Timestamp><Current dt:dt=""r8"">0</Current><DateUtc dt:dt=""string"">2018-06-14T23:27:22Z</DateUtc></FrequencyChange></FrequencyChanges></Clock>\n"	000_R01_VB_allProc-004-1	60.024	1.0.0.182	1	685109619	Professional	2.0.10.356	2.0.10.356	06-14-2018	n/a	19:27:22	2.0.10.252	2	0	0	259591	21	259591	3999	-999999	431464	-3	419531	0	Run5Proc	2	1	2	RunList	1	LowLargeED	8000.0	0.0	281583.0	0.0	281583.0	0.0	281583.0	0.0	C5LowLargeEDBlockProc	n/a	n/a	n/a	n/a	n/a	n/a	n/a	n/a	n/a	n/a	n/a	n/a	1.0	1.0	1.0	Run5BlockList	3	n/a	n/a	n/a	n/a	n/a	n/a	n/a	n/a	n/a	n/a	n/a	n/a	n/a	n/a	n/a	n/a	n/a	n/a	n/a	n/a	n/a	n/a	n/a	n/a	n/a	n/a	n/a	n/a	n/a	n/a	n/a	n/a	n/a	n/a	n/a	n/a	n/a	n/a	n/a	n/a	n/a	n/a	3.0	1.0	3.0	n/a	n/a	n/a	n/a	n/a	n/a	n/a	n/a	n/a	n/a	n/a	n/a	n/a	n/a	n/a	n/a	n/a	n/a	n/a	n/a	n/a	n/a	n/a	n/a	n/a	n/a	n/a	n/a	n/a	n/a	n/a	n/a	n/a	n/a	n/a	n/a	n/a	n/a	n/a	n/a	n/a	n/a	n/a	n/a	n/a	C5_03.jpg	500	1	272087	-1	272086	0	TrialProc1	C5LowLargeEDBlockList	2500	1	269588	1	269588	-1	269587	2499	d	634	270221	9.997
13	2.5	000_R01_VB_allProc	4	1	"<?xml version=""1.0""?>\n<Clock xmlns:dt=""urn:schemas-microsoft-com:datatypes""><Description dt:dt=""string"">E-Prime Primary Realtime Clock</Description><StartTime><Timestamp dt:dt=""int"">0</Timestamp><DateUtc dt:dt=""string"">2018-06-14T23:27:22Z</DateUtc></StartTime><FrequencyChanges><FrequencyChange><Frequency dt:dt=""r8"">3020419</Frequency><Timestamp dt:dt=""r8"">82288893538</Timestamp><Current dt:dt=""r8"">0</Current><DateUtc dt:dt=""string"">2018-06-14T23:27:22Z</DateUtc></FrequencyChange></FrequencyChanges></Clock>\n"	000_R01_VB_allProc-004-1	60.024	1.0.0.182	1	685109619	Professional	2.0.10.356	2.0.10.356	06-14-2018	n/a	19:27:22	2.0.10.252	2	0	0	259591	21	259591	3999	-999999	431464	-3	419531	0	Run5Proc	2	1	2	RunList	1	LowLargeED	8000.0	0.0	281583.0	0.0	281583.0	0.0	281583.0	0.0	C5LowLargeEDBlockProc	n/a	n/a	n/a	n/a	n/a	n/a	n/a	n/a	n/a	n/a	n/a	n/a	1.0	1.0	1.0	Run5BlockList	4	n/a	n/a	n/a	n/a	n/a	n/a	n/a	n/a	n/a	n/a	n/a	n/a	n/a	n/a	n/a	n/a	n/a	n/a	n/a	n/a	n/a	n/a	n/a	n/a	n/a	n/a	n/a	n/a	n/a	n/a	n/a	n/a	n/a	n/a	n/a	n/a	n/a	n/a	n/a	n/a	n/a	n/a	4.0	1.0	4.0	n/a	n/a	n/a	n/a	n/a	n/a	n/a	n/a	n/a	n/a	n/a	n/a	n/a	n/a	n/a	n/a	n/a	n/a	n/a	n/a	n/a	n/a	n/a	n/a	n/a	n/a	n/a	n/a	n/a	n/a	n/a	n/a	n/a	n/a	n/a	n/a	n/a	n/a	n/a	n/a	n/a	n/a	n/a	n/a	n/a	C5_04.jpg	500	1	275086	-1	275085	0	TrialProc1	C5LowLargeEDBlockList	2500	0	272586	0	272586	0	272586	2499	d	1739	274325	12.996
16	2.5	000_R01_VB_allProc	4	1	"<?xml version=""1.0""?>\n<Clock xmlns:dt=""urn:schemas-microsoft-com:datatypes""><Description dt:dt=""string"">E-Prime Primary Realtime Clock</Description><StartTime><Timestamp dt:dt=""int"">0</Timestamp><DateUtc dt:dt=""string"">2018-06-14T23:27:22Z</DateUtc></StartTime><FrequencyChanges><FrequencyChange><Frequency dt:dt=""r8"">3020419</Frequency><Timestamp dt:dt=""r8"">82288893538</Timestamp><Current dt:dt=""r8"">0</Current><DateUtc dt:dt=""string"">2018-06-14T23:27:22Z</DateUtc></FrequencyChange></FrequencyChanges></Clock>\n"	000_R01_VB_allProc-004-1	60.024	1.0.0.182	1	685109619	Professional	2.0.10.356	2.0.10.356	06-14-2018	n/a	19:27:22	2.0.10.252	2	0	0	259591	21	259591	3999	-999999	431464	-3	419531	0	Run5Proc	2	1	2	RunList	1	LowLargeED	8000.0	0.0	281583.0	0.0	281583.0	0.0	281583.0	0.0	C5LowLargeEDBlockProc	n/a	n/a	n/a	n/a	n/a	n/a	n/a	n/a	n/a	n/a	n/a	n/a	1.0	1.0	1.0	Run5BlockList	5	n/a	n/a	n/a	n/a	n/a	n/a	n/a	n/a	n/a	n/a	n/a	n/a	n/a	n/a	n/a	n/a	n/a	n/a	n/a	n/a	n/a	n/a	n/a	n/a	n/a	n/a	n/a	n/a	n/a	n/a	n/a	n/a	n/a	n/a	n/a	n/a	n/a	n/a	n/a	n/a	n/a	n/a	5.0	1.0	5.0	n/a	n/a	n/a	n/a	n/a	n/a	n/a	n/a	n/a	n/a	n/a	n/a	n/a	n/a	n/a	n/a	n/a	n/a	n/a	n/a	n/a	n/a	n/a	n/a	n/a	n/a	n/a	n/a	n/a	n/a	n/a	n/a	n/a	n/a	n/a	n/a	n/a	n/a	n/a	n/a	n/a	n/a	n/a	n/a	n/a	C5_05.jpg	500	0	278084	-1	278084	0	TrialProc1	C5LowLargeEDBlockList	2500	0	275585	0	275585	0	275585	2499	d	1196	276781	15.995
19	2.5	000_R01_VB_allProc	4	1	"<?xml version=""1.0""?>\n<Clock xmlns:dt=""urn:schemas-microsoft-com:datatypes""><Description dt:dt=""string"">E-Prime Primary Realtime Clock</Description><StartTime><Timestamp dt:dt=""int"">0</Timestamp><DateUtc dt:dt=""string"">2018-06-14T23:27:22Z</DateUtc></StartTime><FrequencyChanges><FrequencyChange><Frequency dt:dt=""r8"">3020419</Frequency><Timestamp dt:dt=""r8"">82288893538</Timestamp><Current dt:dt=""r8"">0</Current><DateUtc dt:dt=""string"">2018-06-14T23:27:22Z</DateUtc></FrequencyChange></FrequencyChanges></Clock>\n"	000_R01_VB_allProc-004-1	60.024	1.0.0.182	1	685109619	Professional	2.0.10.356	2.0.10.356	06-14-2018	n/a	19:27:22	2.0.10.252	2	0	0	259591	21	259591	3999	-999999	431464	-3	419531	0	Run5Proc	2	1	2	RunList	1	LowLargeED	8000.0	0.0	281583.0	0.0	281583.0	0.0	281583.0	0.0	C5LowLargeEDBlockProc	n/a	n/a	n/a	n/a	n/a	n/a	n/a	n/a	n/a	n/a	n/a	n/a	1.0	1.0	1.0	Run5BlockList	6	n/a	n/a	n/a	n/a	n/a	n/a	n/a	n/a	n/a	n/a	n/a	n/a	n/a	n/a	n/a	n/a	n/a	n/a	n/a	n/a	n/a	n/a	n/a	n/a	n/a	n/a	n/a	n/a	n/a	n/a	n/a	n/a	n/a	n/a	n/a	n/a	n/a	n/a	n/a	n/a	n/a	n/a	6.0	1.0	6.0	n/a	n/a	n/a	n/a	n/a	n/a	n/a	n/a	n/a	n/a	n/a	n/a	n/a	n/a	n/a	n/a	n/a	n/a	n/a	n/a	n/a	n/a	n/a	n/a	n/a	n/a	n/a	n/a	n/a	n/a	n/a	n/a	n/a	n/a	n/a	n/a	n/a	n/a	n/a	n/a	n/a	n/a	n/a	n/a	n/a	C5_06.jpg	500	0	281083	-1	281083	0	TrialProc1	C5LowLargeEDBlockList	2500	0	278584	0	278584	0	278584	2499	d	957	279541	18.994
30	2.5	000_R01_VB_allProc	4	1	"<?xml version=""1.0""?>\n<Clock xmlns:dt=""urn:schemas-microsoft-com:datatypes""><Description dt:dt=""string"">E-Prime Primary Realtime Clock</Description><StartTime><Timestamp dt:dt=""int"">0</Timestamp><DateUtc dt:dt=""string"">2018-06-14T23:27:22Z</DateUtc></StartTime><FrequencyChanges><FrequencyChange><Frequency dt:dt=""r8"">3020419</Frequency><Timestamp dt:dt=""r8"">82288893538</Timestamp><Current dt:dt=""r8"">0</Current><DateUtc dt:dt=""string"">2018-06-14T23:27:22Z</DateUtc></FrequencyChange></FrequencyChanges></Clock>\n"	000_R01_VB_allProc-004-1	60.024	1.0.0.182	1	685109619	Professional	2.0.10.356	2.0.10.356	06-14-2018	n/a	19:27:22	2.0.10.252	2	0	0	259591	21	259591	3999	-999999	431464	-3	419531	0	Run5Proc	2	1	2	RunList	2	OfficeSmall	8000.0	0.0	307573.0	0.0	307573.0	0.0	307573.0	0.0	F5OfficeSmallBlockProc	n/a	n/a	n/a	n/a	n/a	n/a	n/a	n/a	n/a	n/a	n/a	n/a	2.0	1.0	2.0	Run5BlockList	1	n/a	n/a	n/a	n/a	n/a	n/a	n/a	n/a	n/a	n/a	n/a	n/a	n/a	n/a	n/a	n/a	n/a	n/a	n/a	n/a	n/a	n/a	n/a	n/a	n/a	n/a	n/a	n/a	n/a	n/a	n/a	n/a	n/a	n/a	n/a	n/a	n/a	n/a	n/a	n/a	n/a	n/a	n/a	n/a	n/a	n/a	n/a	n/a	n/a	n/a	n/a	n/a	n/a	n/a	n/a	n/a	n/a	n/a	n/a	n/a	n/a	n/a	n/a	n/a	n/a	n/a	n/a	n/a	n/a	n/a	n/a	n/a	n/a	n/a	n/a	n/a	n/a	n/a	n/a	n/a	n/a	n/a	n/a	n/a	n/a	n/a	n/a	1.0	1.0	1.0	F5_01.jpg	500	0	292079	-1	292079	0	TrialProc1	F5OfficeSmallBlockList	2500	0	289580	0	289580	-3	289580	2499	c	1296	290876	29.99
33	2.5	000_R01_VB_allProc	4	1	"<?xml version=""1.0""?>\n<Clock xmlns:dt=""urn:schemas-microsoft-com:datatypes""><Description dt:dt=""string"">E-Prime Primary Realtime Clock</Description><StartTime><Timestamp dt:dt=""int"">0</Timestamp><DateUtc dt:dt=""string"">2018-06-14T23:27:22Z</DateUtc></StartTime><FrequencyChanges><FrequencyChange><Frequency dt:dt=""r8"">3020419</Frequency><Timestamp dt:dt=""r8"">82288893538</Timestamp><Current dt:dt=""r8"">0</Current><DateUtc dt:dt=""string"">2018-06-14T23:27:22Z</DateUtc></FrequencyChange></FrequencyChanges></Clock>\n"	000_R01_VB_allProc-004-1	60.024	1.0.0.182	1	685109619	Professional	2.0.10.356	2.0.10.356	06-14-2018	n/a	19:27:22	2.0.10.252	2	0	0	259591	21	259591	3999	-999999	431464	-3	419531	0	Run5Proc	2	1	2	RunList	2	OfficeSmall	8000.0	0.0	307573.0	0.0	307573.0	0.0	307573.0	0.0	F5OfficeSmallBlockProc	n/a	n/a	n/a	n/a	n/a	n/a	n/a	n/a	n/a	n/a	n/a	n/a	2.0	1.0	2.0	Run5BlockList	2	n/a	n/a	n/a	n/a	n/a	n/a	n/a	n/a	n/a	n/a	n/a	n/a	n/a	n/a	n/a	n/a	n/a	n/a	n/a	n/a	n/a	n/a	n/a	n/a	n/a	n/a	n/a	n/a	n/a	n/a	n/a	n/a	n/a	n/a	n/a	n/a	n/a	n/a	n/a	n/a	n/a	n/a	n/a	n/a	n/a	n/a	n/a	n/a	n/a	n/a	n/a	n/a	n/a	n/a	n/a	n/a	n/a	n/a	n/a	n/a	n/a	n/a	n/a	n/a	n/a	n/a	n/a	n/a	n/a	n/a	n/a	n/a	n/a	n/a	n/a	n/a	n/a	n/a	n/a	n/a	n/a	n/a	n/a	n/a	n/a	n/a	n/a	2.0	1.0	2.0	F5_02.jpg	500	0	295078	-1	295078	0	TrialProc1	F5OfficeSmallBlockList	2500	0	292579	0	292579	0	292579	2499	c	993	293572	32.989000000000004
36	2.5	000_R01_VB_allProc	4	1	"<?xml version=""1.0""?>\n<Clock xmlns:dt=""urn:schemas-microsoft-com:datatypes""><Description dt:dt=""string"">E-Prime Primary Realtime Clock</Description><StartTime><Timestamp dt:dt=""int"">0</Timestamp><DateUtc dt:dt=""string"">2018-06-14T23:27:22Z</DateUtc></StartTime><FrequencyChanges><FrequencyChange><Frequency dt:dt=""r8"">3020419</Frequency><Timestamp dt:dt=""r8"">82288893538</Timestamp><Current dt:dt=""r8"">0</Current><DateUtc dt:dt=""string"">2018-06-14T23:27:22Z</DateUtc></FrequencyChange></FrequencyChanges></Clock>\n"	000_R01_VB_allProc-004-1	60.024	1.0.0.182	1	685109619	Professional	2.0.10.356	2.0.10.356	06-14-2018	n/a	19:27:22	2.0.10.252	2	0	0	259591	21	259591	3999	-999999	431464	-3	419531	0	Run5Proc	2	1	2	RunList	2	OfficeSmall	8000.0	0.0	307573.0	0.0	307573.0	0.0	307573.0	0.0	F5OfficeSmallBlockProc	n/a	n/a	n/a	n/a	n/a	n/a	n/a	n/a	n/a	n/a	n/a	n/a	2.0	1.0	2.0	Run5BlockList	3	n/a	n/a	n/a	n/a	n/a	n/a	n/a	n/a	n/a	n/a	n/a	n/a	n/a	n/a	n/a	n/a	n/a	n/a	n/a	n/a	n/a	n/a	n/a	n/a	n/a	n/a	n/a	n/a	n/a	n/a	n/a	n/a	n/a	n/a	n/a	n/a	n/a	n/a	n/a	n/a	n/a	n/a	n/a	n/a	n/a	n/a	n/a	n/a	n/a	n/a	n/a	n/a	n/a	n/a	n/a	n/a	n/a	n/a	n/a	n/a	n/a	n/a	n/a	n/a	n/a	n/a	n/a	n/a	n/a	n/a	n/a	n/a	n/a	n/a	n/a	n/a	n/a	n/a	n/a	n/a	n/a	n/a	n/a	n/a	n/a	n/a	n/a	3.0	1.0	3.0	F5_03.jpg	500	0	298077	-1	298077	0	TrialProc1	F5OfficeSmallBlockList	2500	0	295578	0	295578	0	295578	2499	n/a	0	0	35.988
39	2.5	000_R01_VB_allProc	4	1	"<?xml version=""1.0""?>\n<Clock xmlns:dt=""urn:schemas-microsoft-com:datatypes""><Description dt:dt=""string"">E-Prime Primary Realtime Clock</Description><StartTime><Timestamp dt:dt=""int"">0</Timestamp><DateUtc dt:dt=""string"">2018-06-14T23:27:22Z</DateUtc></StartTime><FrequencyChanges><FrequencyChange><Frequency dt:dt=""r8"">3020419</Frequency><Timestamp dt:dt=""r8"">82288893538</Timestamp><Current dt:dt=""r8"">0</Current><DateUtc dt:dt=""string"">2018-06-14T23:27:22Z</DateUtc></FrequencyChange></FrequencyChanges></Clock>\n"	000_R01_VB_allProc-004-1	60.024	1.0.0.182	1	685109619	Professional	2.0.10.356	2.0.10.356	06-14-2018	n/a	19:27:22	2.0.10.252	2	0	0	259591	21	259591	3999	-999999	431464	-3	419531	0	Run5Proc	2	1	2	RunList	2	OfficeSmall	8000.0	0.0	307573.0	0.0	307573.0	0.0	307573.0	0.0	F5OfficeSmallBlockProc	n/a	n/a	n/a	n/a	n/a	n/a	n/a	n/a	n/a	n/a	n/a	n/a	2.0	1.0	2.0	Run5BlockList	4	n/a	n/a	n/a	n/a	n/a	n/a	n/a	n/a	n/a	n/a	n/a	n/a	n/a	n/a	n/a	n/a	n/a	n/a	n/a	n/a	n/a	n/a	n/a	n/a	n/a	n/a	n/a	n/a	n/a	n/a	n/a	n/a	n/a	n/a	n/a	n/a	n/a	n/a	n/a	n/a	n/a	n/a	n/a	n/a	n/a	n/a	n/a	n/a	n/a	n/a	n/a	n/a	n/a	n/a	n/a	n/a	n/a	n/a	n/a	n/a	n/a	n/a	n/a	n/a	n/a	n/a	n/a	n/a	n/a	n/a	n/a	n/a	n/a	n/a	n/a	n/a	n/a	n/a	n/a	n/a	n/a	n/a	n/a	n/a	n/a	n/a	n/a	4.0	1.0	4.0	F5_04.jpg	500	0	301076	-1	301076	0	TrialProc1	F5OfficeSmallBlockList	2500	0	298577	0	298577	0	298577	2499	c	987	299564	38.987
42	2.5	000_R01_VB_allProc	4	1	"<?xml version=""1.0""?>\n<Clock xmlns:dt=""urn:schemas-microsoft-com:datatypes""><Description dt:dt=""string"">E-Prime Primary Realtime Clock</Description><StartTime><Timestamp dt:dt=""int"">0</Timestamp><DateUtc dt:dt=""string"">2018-06-14T23:27:22Z</DateUtc></StartTime><FrequencyChanges><FrequencyChange><Frequency dt:dt=""r8"">3020419</Frequency><Timestamp dt:dt=""r8"">82288893538</Timestamp><Current dt:dt=""r8"">0</Current><DateUtc dt:dt=""string"">2018-06-14T23:27:22Z</DateUtc></FrequencyChange></FrequencyChanges></Clock>\n"	000_R01_VB_allProc-004-1	60.024	1.0.0.182	1	685109619	Professional	2.0.10.356	2.0.10.356	06-14-2018	n/a	19:27:22	2.0.10.252	2	0	0	259591	21	259591	3999	-999999	431464	-3	419531	0	Run5Proc	2	1	2	RunList	2	OfficeSmall	8000.0	0.0	307573.0	0.0	307573.0	0.0	307573.0	0.0	F5OfficeSmallBlockProc	n/a	n/a	n/a	n/a	n/a	n/a	n/a	n/a	n/a	n/a	n/a	n/a	2.0	1.0	2.0	Run5BlockList	5	n/a	n/a	n/a	n/a	n/a	n/a	n/a	n/a	n/a	n/a	n/a	n/a	n/a	n/a	n/a	n/a	n/a	n/a	n/a	n/a	n/a	n/a	n/a	n/a	n/a	n/a	n/a	n/a	n/a	n/a	n/a	n/a	n/a	n/a	n/a	n/a	n/a	n/a	n/a	n/a	n/a	n/a	n/a	n/a	n/a	n/a	n/a	n/a	n/a	n/a	n/a	n/a	n/a	n/a	n/a	n/a	n/a	n/a	n/a	n/a	n/a	n/a	n/a	n/a	n/a	n/a	n/a	n/a	n/a	n/a	n/a	n/a	n/a	n/a	n/a	n/a	n/a	n/a	n/a	n/a	n/a	n/a	n/a	n/a	n/a	n/a	n/a	5.0	1.0	5.0	F5_05.jpg	500	0	304075	0	304075	0	TrialProc1	F5OfficeSmallBlockList	2500	1	301576	1	301576	-1	301575	2500	c	1109	302684	41.985
45	2.5	000_R01_VB_allProc	4	1	"<?xml version=""1.0""?>\n<Clock xmlns:dt=""urn:schemas-microsoft-com:datatypes""><Description dt:dt=""string"">E-Prime Primary Realtime Clock</Description><StartTime><Timestamp dt:dt=""int"">0</Timestamp><DateUtc dt:dt=""string"">2018-06-14T23:27:22Z</DateUtc></StartTime><FrequencyChanges><FrequencyChange><Frequency dt:dt=""r8"">3020419</Frequency><Timestamp dt:dt=""r8"">82288893538</Timestamp><Current dt:dt=""r8"">0</Current><DateUtc dt:dt=""string"">2018-06-14T23:27:22Z</DateUtc></FrequencyChange></FrequencyChanges></Clock>\n"	000_R01_VB_allProc-004-1	60.024	1.0.0.182	1	685109619	Professional	2.0.10.356	2.0.10.356	06-14-2018	n/a	19:27:22	2.0.10.252	2	0	0	259591	21	259591	3999	-999999	431464	-3	419531	0	Run5Proc	2	1	2	RunList	2	OfficeSmall	8000.0	0.0	307573.0	0.0	307573.0	0.0	307573.0	0.0	F5OfficeSmallBlockProc	n/a	n/a	n/a	n/a	n/a	n/a	n/a	n/a	n/a	n/a	n/a	n/a	2.0	1.0	2.0	Run5BlockList	6	n/a	n/a	n/a	n/a	n/a	n/a	n/a	n/a	n/a	n/a	n/a	n/a	n/a	n/a	n/a	n/a	n/a	n/a	n/a	n/a	n/a	n/a	n/a	n/a	n/a	n/a	n/a	n/a	n/a	n/a	n/a	n/a	n/a	n/a	n/a	n/a	n/a	n/a	n/a	n/a	n/a	n/a	n/a	n/a	n/a	n/a	n/a	n/a	n/a	n/a	n/a	n/a	n/a	n/a	n/a	n/a	n/a	n/a	n/a	n/a	n/a	n/a	n/a	n/a	n/a	n/a	n/a	n/a	n/a	n/a	n/a	n/a	n/a	n/a	n/a	n/a	n/a	n/a	n/a	n/a	n/a	n/a	n/a	n/a	n/a	n/a	n/a	6.0	1.0	6.0	F5_06.jpg	500	0	307073	-1	307073	0	TrialProc1	F5OfficeSmallBlockList	2500	0	304574	0	304574	-1	304574	2499	c	870	305444	44.984
56	2.5	000_R01_VB_allProc	4	1	"<?xml version=""1.0""?>\n<Clock xmlns:dt=""urn:schemas-microsoft-com:datatypes""><Description dt:dt=""string"">E-Prime Primary Realtime Clock</Description><StartTime><Timestamp dt:dt=""int"">0</Timestamp><DateUtc dt:dt=""string"">2018-06-14T23:27:22Z</DateUtc></StartTime><FrequencyChanges><FrequencyChange><Frequency dt:dt=""r8"">3020419</Frequency><Timestamp dt:dt=""r8"">82288893538</Timestamp><Current dt:dt=""r8"">0</Current><DateUtc dt:dt=""string"">2018-06-14T23:27:22Z</DateUtc></FrequencyChange></FrequencyChanges></Clock>\n"	000_R01_VB_allProc-004-1	60.024	1.0.0.182	1	685109619	Professional	2.0.10.356	2.0.10.356	06-14-2018	n/a	19:27:22	2.0.10.252	2	0	0	259591	21	259591	3999	-999999	431464	-3	419531	0	Run5Proc	2	1	2	RunList	3	HighSmallED	8000.0	1.0	333564.0	1.0	333564.0	-1.0	333563.0	0.0	B5HighSmallEDBlockProc	n/a	n/a	n/a	n/a	n/a	n/a	n/a	n/a	n/a	n/a	n/a	n/a	3.0	1.0	3.0	Run5BlockList	1	n/a	n/a	n/a	n/a	n/a	n/a	n/a	n/a	n/a	n/a	n/a	n/a	n/a	n/a	n/a	n/a	n/a	n/a	n/a	n/a	n/a	n/a	n/a	n/a	n/a	n/a	n/a	1.0	1.0	1.0	n/a	n/a	n/a	n/a	n/a	n/a	n/a	n/a	n/a	n/a	n/a	n/a	n/a	n/a	n/a	n/a	n/a	n/a	n/a	n/a	n/a	n/a	n/a	n/a	n/a	n/a	n/a	n/a	n/a	n/a	n/a	n/a	n/a	n/a	n/a	n/a	n/a	n/a	n/a	n/a	n/a	n/a	n/a	n/a	n/a	n/a	n/a	n/a	n/a	n/a	n/a	n/a	n/a	n/a	n/a	n/a	n/a	n/a	n/a	n/a	B5_01.jpg	500	0	318069	-1	318069	0	TrialProc1	B5HighSmallEDBlockList	2500	0	315570	0	315570	-3	315570	2499	d	1450	317020	55.98
59	2.5	000_R01_VB_allProc	4	1	"<?xml version=""1.0""?>\n<Clock xmlns:dt=""urn:schemas-microsoft-com:datatypes""><Description dt:dt=""string"">E-Prime Primary Realtime Clock</Description><StartTime><Timestamp dt:dt=""int"">0</Timestamp><DateUtc dt:dt=""string"">2018-06-14T23:27:22Z</DateUtc></StartTime><FrequencyChanges><FrequencyChange><Frequency dt:dt=""r8"">3020419</Frequency><Timestamp dt:dt=""r8"">82288893538</Timestamp><Current dt:dt=""r8"">0</Current><DateUtc dt:dt=""string"">2018-06-14T23:27:22Z</DateUtc></FrequencyChange></FrequencyChanges></Clock>\n"	000_R01_VB_allProc-004-1	60.024	1.0.0.182	1	685109619	Professional	2.0.10.356	2.0.10.356	06-14-2018	n/a	19:27:22	2.0.10.252	2	0	0	259591	21	259591	3999	-999999	431464	-3	419531	0	Run5Proc	2	1	2	RunList	3	HighSmallED	8000.0	1.0	333564.0	1.0	333564.0	-1.0	333563.0	0.0	B5HighSmallEDBlockProc	n/a	n/a	n/a	n/a	n/a	n/a	n/a	n/a	n/a	n/a	n/a	n/a	3.0	1.0	3.0	Run5BlockList	2	n/a	n/a	n/a	n/a	n/a	n/a	n/a	n/a	n/a	n/a	n/a	n/a	n/a	n/a	n/a	n/a	n/a	n/a	n/a	n/a	n/a	n/a	n/a	n/a	n/a	n/a	n/a	2.0	1.0	2.0	n/a	n/a	n/a	n/a	n/a	n/a	n/a	n/a	n/a	n/a	n/a	n/a	n/a	n/a	n/a	n/a	n/a	n/a	n/a	n/a	n/a	n/a	n/a	n/a	n/a	n/a	n/a	n/a	n/a	n/a	n/a	n/a	n/a	n/a	n/a	n/a	n/a	n/a	n/a	n/a	n/a	n/a	n/a	n/a	n/a	n/a	n/a	n/a	n/a	n/a	n/a	n/a	n/a	n/a	n/a	n/a	n/a	n/a	n/a	n/a	B5_02.jpg	500	0	321068	-1	321068	0	TrialProc1	B5HighSmallEDBlockList	2500	0	318569	0	318569	0	318569	2499	d	2131	320700	58.979
62	2.5	000_R01_VB_allProc	4	1	"<?xml version=""1.0""?>\n<Clock xmlns:dt=""urn:schemas-microsoft-com:datatypes""><Description dt:dt=""string"">E-Prime Primary Realtime Clock</Description><StartTime><Timestamp dt:dt=""int"">0</Timestamp><DateUtc dt:dt=""string"">2018-06-14T23:27:22Z</DateUtc></StartTime><FrequencyChanges><FrequencyChange><Frequency dt:dt=""r8"">3020419</Frequency><Timestamp dt:dt=""r8"">82288893538</Timestamp><Current dt:dt=""r8"">0</Current><DateUtc dt:dt=""string"">2018-06-14T23:27:22Z</DateUtc></FrequencyChange></FrequencyChanges></Clock>\n"	000_R01_VB_allProc-004-1	60.024	1.0.0.182	1	685109619	Professional	2.0.10.356	2.0.10.356	06-14-2018	n/a	19:27:22	2.0.10.252	2	0	0	259591	21	259591	3999	-999999	431464	-3	419531	0	Run5Proc	2	1	2	RunList	3	HighSmallED	8000.0	1.0	333564.0	1.0	333564.0	-1.0	333563.0	0.0	B5HighSmallEDBlockProc	n/a	n/a	n/a	n/a	n/a	n/a	n/a	n/a	n/a	n/a	n/a	n/a	3.0	1.0	3.0	Run5BlockList	3	n/a	n/a	n/a	n/a	n/a	n/a	n/a	n/a	n/a	n/a	n/a	n/a	n/a	n/a	n/a	n/a	n/a	n/a	n/a	n/a	n/a	n/a	n/a	n/a	n/a	n/a	n/a	3.0	1.0	3.0	n/a	n/a	n/a	n/a	n/a	n/a	n/a	n/a	n/a	n/a	n/a	n/a	n/a	n/a	n/a	n/a	n/a	n/a	n/a	n/a	n/a	n/a	n/a	n/a	n/a	n/a	n/a	n/a	n/a	n/a	n/a	n/a	n/a	n/a	n/a	n/a	n/a	n/a	n/a	n/a	n/a	n/a	n/a	n/a	n/a	n/a	n/a	n/a	n/a	n/a	n/a	n/a	n/a	n/a	n/a	n/a	n/a	n/a	n/a	n/a	B5_03.jpg	500	0	324067	-1	324067	0	TrialProc1	B5HighSmallEDBlockList	2500	0	321568	0	321568	0	321568	2499	d	1276	322844	61.978
65	2.5	000_R01_VB_allProc	4	1	"<?xml version=""1.0""?>\n<Clock xmlns:dt=""urn:schemas-microsoft-com:datatypes""><Description dt:dt=""string"">E-Prime Primary Realtime Clock</Description><StartTime><Timestamp dt:dt=""int"">0</Timestamp><DateUtc dt:dt=""string"">2018-06-14T23:27:22Z</DateUtc></StartTime><FrequencyChanges><FrequencyChange><Frequency dt:dt=""r8"">3020419</Frequency><Timestamp dt:dt=""r8"">82288893538</Timestamp><Current dt:dt=""r8"">0</Current><DateUtc dt:dt=""string"">2018-06-14T23:27:22Z</DateUtc></FrequencyChange></FrequencyChanges></Clock>\n"	000_R01_VB_allProc-004-1	60.024	1.0.0.182	1	685109619	Professional	2.0.10.356	2.0.10.356	06-14-2018	n/a	19:27:22	2.0.10.252	2	0	0	259591	21	259591	3999	-999999	431464	-3	419531	0	Run5Proc	2	1	2	RunList	3	HighSmallED	8000.0	1.0	333564.0	1.0	333564.0	-1.0	333563.0	0.0	B5HighSmallEDBlockProc	n/a	n/a	n/a	n/a	n/a	n/a	n/a	n/a	n/a	n/a	n/a	n/a	3.0	1.0	3.0	Run5BlockList	4	n/a	n/a	n/a	n/a	n/a	n/a	n/a	n/a	n/a	n/a	n/a	n/a	n/a	n/a	n/a	n/a	n/a	n/a	n/a	n/a	n/a	n/a	n/a	n/a	n/a	n/a	n/a	4.0	1.0	4.0	n/a	n/a	n/a	n/a	n/a	n/a	n/a	n/a	n/a	n/a	n/a	n/a	n/a	n/a	n/a	n/a	n/a	n/a	n/a	n/a	n/a	n/a	n/a	n/a	n/a	n/a	n/a	n/a	n/a	n/a	n/a	n/a	n/a	n/a	n/a	n/a	n/a	n/a	n/a	n/a	n/a	n/a	n/a	n/a	n/a	n/a	n/a	n/a	n/a	n/a	n/a	n/a	n/a	n/a	n/a	n/a	n/a	n/a	n/a	n/a	B5_04.jpg	500	0	327066	-1	327066	0	TrialProc1	B5HighSmallEDBlockList	2500	0	324567	0	324567	0	324567	2499	d	917	325484	64.977
68	2.5	000_R01_VB_allProc	4	1	"<?xml version=""1.0""?>\n<Clock xmlns:dt=""urn:schemas-microsoft-com:datatypes""><Description dt:dt=""string"">E-Prime Primary Realtime Clock</Description><StartTime><Timestamp dt:dt=""int"">0</Timestamp><DateUtc dt:dt=""string"">2018-06-14T23:27:22Z</DateUtc></StartTime><FrequencyChanges><FrequencyChange><Frequency dt:dt=""r8"">3020419</Frequency><Timestamp dt:dt=""r8"">82288893538</Timestamp><Current dt:dt=""r8"">0</Current><DateUtc dt:dt=""string"">2018-06-14T23:27:22Z</DateUtc></FrequencyChange></FrequencyChanges></Clock>\n"	000_R01_VB_allProc-004-1	60.024	1.0.0.182	1	685109619	Professional	2.0.10.356	2.0.10.356	06-14-2018	n/a	19:27:22	2.0.10.252	2	0	0	259591	21	259591	3999	-999999	431464	-3	419531	0	Run5Proc	2	1	2	RunList	3	HighSmallED	8000.0	1.0	333564.0	1.0	333564.0	-1.0	333563.0	0.0	B5HighSmallEDBlockProc	n/a	n/a	n/a	n/a	n/a	n/a	n/a	n/a	n/a	n/a	n/a	n/a	3.0	1.0	3.0	Run5BlockList	5	n/a	n/a	n/a	n/a	n/a	n/a	n/a	n/a	n/a	n/a	n/a	n/a	n/a	n/a	n/a	n/a	n/a	n/a	n/a	n/a	n/a	n/a	n/a	n/a	n/a	n/a	n/a	5.0	1.0	5.0	n/a	n/a	n/a	n/a	n/a	n/a	n/a	n/a	n/a	n/a	n/a	n/a	n/a	n/a	n/a	n/a	n/a	n/a	n/a	n/a	n/a	n/a	n/a	n/a	n/a	n/a	n/a	n/a	n/a	n/a	n/a	n/a	n/a	n/a	n/a	n/a	n/a	n/a	n/a	n/a	n/a	n/a	n/a	n/a	n/a	n/a	n/a	n/a	n/a	n/a	n/a	n/a	n/a	n/a	n/a	n/a	n/a	n/a	n/a	n/a	B5_05.jpg	500	0	330065	-1	330065	0	TrialProc1	B5HighSmallEDBlockList	2500	0	327566	0	327566	0	327566	2499	d	805	328371	67.976
71	2.5	000_R01_VB_allProc	4	1	"<?xml version=""1.0""?>\n<Clock xmlns:dt=""urn:schemas-microsoft-com:datatypes""><Description dt:dt=""string"">E-Prime Primary Realtime Clock</Description><StartTime><Timestamp dt:dt=""int"">0</Timestamp><DateUtc dt:dt=""string"">2018-06-14T23:27:22Z</DateUtc></StartTime><FrequencyChanges><FrequencyChange><Frequency dt:dt=""r8"">3020419</Frequency><Timestamp dt:dt=""r8"">82288893538</Timestamp><Current dt:dt=""r8"">0</Current><DateUtc dt:dt=""string"">2018-06-14T23:27:22Z</DateUtc></FrequencyChange></FrequencyChanges></Clock>\n"	000_R01_VB_allProc-004-1	60.024	1.0.0.182	1	685109619	Professional	2.0.10.356	2.0.10.356	06-14-2018	n/a	19:27:22	2.0.10.252	2	0	0	259591	21	259591	3999	-999999	431464	-3	419531	0	Run5Proc	2	1	2	RunList	3	HighSmallED	8000.0	1.0	333564.0	1.0	333564.0	-1.0	333563.0	0.0	B5HighSmallEDBlockProc	n/a	n/a	n/a	n/a	n/a	n/a	n/a	n/a	n/a	n/a	n/a	n/a	3.0	1.0	3.0	Run5BlockList	6	n/a	n/a	n/a	n/a	n/a	n/a	n/a	n/a	n/a	n/a	n/a	n/a	n/a	n/a	n/a	n/a	n/a	n/a	n/a	n/a	n/a	n/a	n/a	n/a	n/a	n/a	n/a	6.0	1.0	6.0	n/a	n/a	n/a	n/a	n/a	n/a	n/a	n/a	n/a	n/a	n/a	n/a	n/a	n/a	n/a	n/a	n/a	n/a	n/a	n/a	n/a	n/a	n/a	n/a	n/a	n/a	n/a	n/a	n/a	n/a	n/a	n/a	n/a	n/a	n/a	n/a	n/a	n/a	n/a	n/a	n/a	n/a	n/a	n/a	n/a	n/a	n/a	n/a	n/a	n/a	n/a	n/a	n/a	n/a	n/a	n/a	n/a	n/a	n/a	n/a	B5_06.jpg	500	0	333064	-1	333064	0	TrialProc1	B5HighSmallEDBlockList	2500	0	330565	0	330565	0	330565	2499	d	726	331291	70.975
82	2.5	000_R01_VB_allProc	4	1	"<?xml version=""1.0""?>\n<Clock xmlns:dt=""urn:schemas-microsoft-com:datatypes""><Description dt:dt=""string"">E-Prime Primary Realtime Clock</Description><StartTime><Timestamp dt:dt=""int"">0</Timestamp><DateUtc dt:dt=""string"">2018-06-14T23:27:22Z</DateUtc></StartTime><FrequencyChanges><FrequencyChange><Frequency dt:dt=""r8"">3020419</Frequency><Timestamp dt:dt=""r8"">82288893538</Timestamp><Current dt:dt=""r8"">0</Current><DateUtc dt:dt=""string"">2018-06-14T23:27:22Z</DateUtc></FrequencyChange></FrequencyChanges></Clock>\n"	000_R01_VB_allProc-004-1	60.024	1.0.0.182	1	685109619	Professional	2.0.10.356	2.0.10.356	06-14-2018	n/a	19:27:22	2.0.10.252	2	0	0	259591	21	259591	3999	-999999	431464	-3	419531	0	Run5Proc	2	1	2	RunList	4	OfficeLarge	8000.0	0.0	359554.0	0.0	359554.0	0.0	359554.0	0.0	E5OfficeLargeBlockProc	n/a	n/a	n/a	n/a	n/a	n/a	n/a	n/a	n/a	n/a	n/a	n/a	4.0	1.0	4.0	Run5BlockList	1	n/a	n/a	n/a	n/a	n/a	n/a	n/a	n/a	n/a	n/a	n/a	n/a	n/a	n/a	n/a	n/a	n/a	n/a	n/a	n/a	n/a	n/a	n/a	n/a	n/a	n/a	n/a	n/a	n/a	n/a	n/a	n/a	n/a	n/a	n/a	n/a	n/a	n/a	n/a	n/a	n/a	n/a	n/a	n/a	n/a	n/a	n/a	n/a	n/a	n/a	n/a	n/a	n/a	n/a	n/a	n/a	n/a	n/a	n/a	n/a	n/a	n/a	n/a	n/a	n/a	n/a	n/a	n/a	n/a	n/a	n/a	n/a	1.0	1.0	1.0	n/a	n/a	n/a	n/a	n/a	n/a	n/a	n/a	n/a	n/a	n/a	n/a	n/a	n/a	n/a	E5_01.jpg	500	0	344060	0	344060	0	TrialProc1	E5OfficeLargeBlockList	2500	1	341561	1	341561	-3	341560	2500	c	1571	343131	81.97
85	2.5	000_R01_VB_allProc	4	1	"<?xml version=""1.0""?>\n<Clock xmlns:dt=""urn:schemas-microsoft-com:datatypes""><Description dt:dt=""string"">E-Prime Primary Realtime Clock</Description><StartTime><Timestamp dt:dt=""int"">0</Timestamp><DateUtc dt:dt=""string"">2018-06-14T23:27:22Z</DateUtc></StartTime><FrequencyChanges><FrequencyChange><Frequency dt:dt=""r8"">3020419</Frequency><Timestamp dt:dt=""r8"">82288893538</Timestamp><Current dt:dt=""r8"">0</Current><DateUtc dt:dt=""string"">2018-06-14T23:27:22Z</DateUtc></FrequencyChange></FrequencyChanges></Clock>\n"	000_R01_VB_allProc-004-1	60.024	1.0.0.182	1	685109619	Professional	2.0.10.356	2.0.10.356	06-14-2018	n/a	19:27:22	2.0.10.252	2	0	0	259591	21	259591	3999	-999999	431464	-3	419531	0	Run5Proc	2	1	2	RunList	4	OfficeLarge	8000.0	0.0	359554.0	0.0	359554.0	0.0	359554.0	0.0	E5OfficeLargeBlockProc	n/a	n/a	n/a	n/a	n/a	n/a	n/a	n/a	n/a	n/a	n/a	n/a	4.0	1.0	4.0	Run5BlockList	2	n/a	n/a	n/a	n/a	n/a	n/a	n/a	n/a	n/a	n/a	n/a	n/a	n/a	n/a	n/a	n/a	n/a	n/a	n/a	n/a	n/a	n/a	n/a	n/a	n/a	n/a	n/a	n/a	n/a	n/a	n/a	n/a	n/a	n/a	n/a	n/a	n/a	n/a	n/a	n/a	n/a	n/a	n/a	n/a	n/a	n/a	n/a	n/a	n/a	n/a	n/a	n/a	n/a	n/a	n/a	n/a	n/a	n/a	n/a	n/a	n/a	n/a	n/a	n/a	n/a	n/a	n/a	n/a	n/a	n/a	n/a	n/a	2.0	1.0	2.0	n/a	n/a	n/a	n/a	n/a	n/a	n/a	n/a	n/a	n/a	n/a	n/a	n/a	n/a	n/a	E5_02.jpg	500	0	347058	-1	347058	0	TrialProc1	E5OfficeLargeBlockList	2500	0	344559	0	344559	-1	344559	2499	c	628	345187	84.969
88	2.5	000_R01_VB_allProc	4	1	"<?xml version=""1.0""?>\n<Clock xmlns:dt=""urn:schemas-microsoft-com:datatypes""><Description dt:dt=""string"">E-Prime Primary Realtime Clock</Description><StartTime><Timestamp dt:dt=""int"">0</Timestamp><DateUtc dt:dt=""string"">2018-06-14T23:27:22Z</DateUtc></StartTime><FrequencyChanges><FrequencyChange><Frequency dt:dt=""r8"">3020419</Frequency><Timestamp dt:dt=""r8"">82288893538</Timestamp><Current dt:dt=""r8"">0</Current><DateUtc dt:dt=""string"">2018-06-14T23:27:22Z</DateUtc></FrequencyChange></FrequencyChanges></Clock>\n"	000_R01_VB_allProc-004-1	60.024	1.0.0.182	1	685109619	Professional	2.0.10.356	2.0.10.356	06-14-2018	n/a	19:27:22	2.0.10.252	2	0	0	259591	21	259591	3999	-999999	431464	-3	419531	0	Run5Proc	2	1	2	RunList	4	OfficeLarge	8000.0	0.0	359554.0	0.0	359554.0	0.0	359554.0	0.0	E5OfficeLargeBlockProc	n/a	n/a	n/a	n/a	n/a	n/a	n/a	n/a	n/a	n/a	n/a	n/a	4.0	1.0	4.0	Run5BlockList	3	n/a	n/a	n/a	n/a	n/a	n/a	n/a	n/a	n/a	n/a	n/a	n/a	n/a	n/a	n/a	n/a	n/a	n/a	n/a	n/a	n/a	n/a	n/a	n/a	n/a	n/a	n/a	n/a	n/a	n/a	n/a	n/a	n/a	n/a	n/a	n/a	n/a	n/a	n/a	n/a	n/a	n/a	n/a	n/a	n/a	n/a	n/a	n/a	n/a	n/a	n/a	n/a	n/a	n/a	n/a	n/a	n/a	n/a	n/a	n/a	n/a	n/a	n/a	n/a	n/a	n/a	n/a	n/a	n/a	n/a	n/a	n/a	3.0	1.0	3.0	n/a	n/a	n/a	n/a	n/a	n/a	n/a	n/a	n/a	n/a	n/a	n/a	n/a	n/a	n/a	E5_03.jpg	500	0	350057	-1	350057	0	TrialProc1	E5OfficeLargeBlockList	2500	0	347558	0	347558	0	347558	2499	c	1069	348627	87.968
91	2.5	000_R01_VB_allProc	4	1	"<?xml version=""1.0""?>\n<Clock xmlns:dt=""urn:schemas-microsoft-com:datatypes""><Description dt:dt=""string"">E-Prime Primary Realtime Clock</Description><StartTime><Timestamp dt:dt=""int"">0</Timestamp><DateUtc dt:dt=""string"">2018-06-14T23:27:22Z</DateUtc></StartTime><FrequencyChanges><FrequencyChange><Frequency dt:dt=""r8"">3020419</Frequency><Timestamp dt:dt=""r8"">82288893538</Timestamp><Current dt:dt=""r8"">0</Current><DateUtc dt:dt=""string"">2018-06-14T23:27:22Z</DateUtc></FrequencyChange></FrequencyChanges></Clock>\n"	000_R01_VB_allProc-004-1	60.024	1.0.0.182	1	685109619	Professional	2.0.10.356	2.0.10.356	06-14-2018	n/a	19:27:22	2.0.10.252	2	0	0	259591	21	259591	3999	-999999	431464	-3	419531	0	Run5Proc	2	1	2	RunList	4	OfficeLarge	8000.0	0.0	359554.0	0.0	359554.0	0.0	359554.0	0.0	E5OfficeLargeBlockProc	n/a	n/a	n/a	n/a	n/a	n/a	n/a	n/a	n/a	n/a	n/a	n/a	4.0	1.0	4.0	Run5BlockList	4	n/a	n/a	n/a	n/a	n/a	n/a	n/a	n/a	n/a	n/a	n/a	n/a	n/a	n/a	n/a	n/a	n/a	n/a	n/a	n/a	n/a	n/a	n/a	n/a	n/a	n/a	n/a	n/a	n/a	n/a	n/a	n/a	n/a	n/a	n/a	n/a	n/a	n/a	n/a	n/a	n/a	n/a	n/a	n/a	n/a	n/a	n/a	n/a	n/a	n/a	n/a	n/a	n/a	n/a	n/a	n/a	n/a	n/a	n/a	n/a	n/a	n/a	n/a	n/a	n/a	n/a	n/a	n/a	n/a	n/a	n/a	n/a	4.0	1.0	4.0	n/a	n/a	n/a	n/a	n/a	n/a	n/a	n/a	n/a	n/a	n/a	n/a	n/a	n/a	n/a	E5_04.jpg	500	0	353056	-1	353056	0	TrialProc1	E5OfficeLargeBlockList	2500	0	350557	0	350557	0	350557	2499	c	1870	352427	90.967
94	2.5	000_R01_VB_allProc	4	1	"<?xml version=""1.0""?>\n<Clock xmlns:dt=""urn:schemas-microsoft-com:datatypes""><Description dt:dt=""string"">E-Prime Primary Realtime Clock</Description><StartTime><Timestamp dt:dt=""int"">0</Timestamp><DateUtc dt:dt=""string"">2018-06-14T23:27:22Z</DateUtc></StartTime><FrequencyChanges><FrequencyChange><Frequency dt:dt=""r8"">3020419</Frequency><Timestamp dt:dt=""r8"">82288893538</Timestamp><Current dt:dt=""r8"">0</Current><DateUtc dt:dt=""string"">2018-06-14T23:27:22Z</DateUtc></FrequencyChange></FrequencyChanges></Clock>\n"	000_R01_VB_allProc-004-1	60.024	1.0.0.182	1	685109619	Professional	2.0.10.356	2.0.10.356	06-14-2018	n/a	19:27:22	2.0.10.252	2	0	0	259591	21	259591	3999	-999999	431464	-3	419531	0	Run5Proc	2	1	2	RunList	4	OfficeLarge	8000.0	0.0	359554.0	0.0	359554.0	0.0	359554.0	0.0	E5OfficeLargeBlockProc	n/a	n/a	n/a	n/a	n/a	n/a	n/a	n/a	n/a	n/a	n/a	n/a	4.0	1.0	4.0	Run5BlockList	5	n/a	n/a	n/a	n/a	n/a	n/a	n/a	n/a	n/a	n/a	n/a	n/a	n/a	n/a	n/a	n/a	n/a	n/a	n/a	n/a	n/a	n/a	n/a	n/a	n/a	n/a	n/a	n/a	n/a	n/a	n/a	n/a	n/a	n/a	n/a	n/a	n/a	n/a	n/a	n/a	n/a	n/a	n/a	n/a	n/a	n/a	n/a	n/a	n/a	n/a	n/a	n/a	n/a	n/a	n/a	n/a	n/a	n/a	n/a	n/a	n/a	n/a	n/a	n/a	n/a	n/a	n/a	n/a	n/a	n/a	n/a	n/a	5.0	1.0	5.0	n/a	n/a	n/a	n/a	n/a	n/a	n/a	n/a	n/a	n/a	n/a	n/a	n/a	n/a	n/a	E5_05.jpg	500	0	356055	-1	356055	0	TrialProc1	E5OfficeLargeBlockList	2500	0	353556	0	353556	0	353556	2499	c	927	354483	93.966
97	2.5	000_R01_VB_allProc	4	1	"<?xml version=""1.0""?>\n<Clock xmlns:dt=""urn:schemas-microsoft-com:datatypes""><Description dt:dt=""string"">E-Prime Primary Realtime Clock</Description><StartTime><Timestamp dt:dt=""int"">0</Timestamp><DateUtc dt:dt=""string"">2018-06-14T23:27:22Z</DateUtc></StartTime><FrequencyChanges><FrequencyChange><Frequency dt:dt=""r8"">3020419</Frequency><Timestamp dt:dt=""r8"">82288893538</Timestamp><Current dt:dt=""r8"">0</Current><DateUtc dt:dt=""string"">2018-06-14T23:27:22Z</DateUtc></FrequencyChange></FrequencyChanges></Clock>\n"	000_R01_VB_allProc-004-1	60.024	1.0.0.182	1	685109619	Professional	2.0.10.356	2.0.10.356	06-14-2018	n/a	19:27:22	2.0.10.252	2	0	0	259591	21	259591	3999	-999999	431464	-3	419531	0	Run5Proc	2	1	2	RunList	4	OfficeLarge	8000.0	0.0	359554.0	0.0	359554.0	0.0	359554.0	0.0	E5OfficeLargeBlockProc	n/a	n/a	n/a	n/a	n/a	n/a	n/a	n/a	n/a	n/a	n/a	n/a	4.0	1.0	4.0	Run5BlockList	6	n/a	n/a	n/a	n/a	n/a	n/a	n/a	n/a	n/a	n/a	n/a	n/a	n/a	n/a	n/a	n/a	n/a	n/a	n/a	n/a	n/a	n/a	n/a	n/a	n/a	n/a	n/a	n/a	n/a	n/a	n/a	n/a	n/a	n/a	n/a	n/a	n/a	n/a	n/a	n/a	n/a	n/a	n/a	n/a	n/a	n/a	n/a	n/a	n/a	n/a	n/a	n/a	n/a	n/a	n/a	n/a	n/a	n/a	n/a	n/a	n/a	n/a	n/a	n/a	n/a	n/a	n/a	n/a	n/a	n/a	n/a	n/a	6.0	1.0	6.0	n/a	n/a	n/a	n/a	n/a	n/a	n/a	n/a	n/a	n/a	n/a	n/a	n/a	n/a	n/a	E5_06.jpg	500	0	359054	-1	359054	0	TrialProc1	E5OfficeLargeBlockList	2500	0	356555	0	356555	0	356555	2499	c	1032	357587	96.965
108	2.5	000_R01_VB_allProc	4	1	"<?xml version=""1.0""?>\n<Clock xmlns:dt=""urn:schemas-microsoft-com:datatypes""><Description dt:dt=""string"">E-Prime Primary Realtime Clock</Description><StartTime><Timestamp dt:dt=""int"">0</Timestamp><DateUtc dt:dt=""string"">2018-06-14T23:27:22Z</DateUtc></StartTime><FrequencyChanges><FrequencyChange><Frequency dt:dt=""r8"">3020419</Frequency><Timestamp dt:dt=""r8"">82288893538</Timestamp><Current dt:dt=""r8"">0</Current><DateUtc dt:dt=""string"">2018-06-14T23:27:22Z</DateUtc></FrequencyChange></FrequencyChanges></Clock>\n"	000_R01_VB_allProc-004-1	60.024	1.0.0.182	1	685109619	Professional	2.0.10.356	2.0.10.356	06-14-2018	n/a	19:27:22	2.0.10.252	2	0	0	259591	21	259591	3999	-999999	431464	-3	419531	0	Run5Proc	2	1	2	RunList	5	HighLargeED	8000.0	0.0	385544.0	0.0	385544.0	0.0	385544.0	0.0	A5HighLargeEDBlockProc	n/a	n/a	n/a	n/a	n/a	n/a	n/a	n/a	n/a	n/a	n/a	n/a	5.0	1.0	5.0	Run5BlockList	1	n/a	n/a	n/a	n/a	n/a	n/a	n/a	n/a	n/a	n/a	n/a	n/a	1.0	1.0	1.0	n/a	n/a	n/a	n/a	n/a	n/a	n/a	n/a	n/a	n/a	n/a	n/a	n/a	n/a	n/a	n/a	n/a	n/a	n/a	n/a	n/a	n/a	n/a	n/a	n/a	n/a	n/a	n/a	n/a	n/a	n/a	n/a	n/a	n/a	n/a	n/a	n/a	n/a	n/a	n/a	n/a	n/a	n/a	n/a	n/a	n/a	n/a	n/a	n/a	n/a	n/a	n/a	n/a	n/a	n/a	n/a	n/a	n/a	n/a	n/a	n/a	n/a	n/a	n/a	n/a	n/a	n/a	n/a	n/a	n/a	n/a	n/a	n/a	n/a	n/a	A5_01.jpg	500	0	370050	-1	370050	0	TrialProc1	A5HighLargeEDBlockList	2500	0	367551	0	367551	-3	367551	2499	c	1396	368947	107.961
111	2.5	000_R01_VB_allProc	4	1	"<?xml version=""1.0""?>\n<Clock xmlns:dt=""urn:schemas-microsoft-com:datatypes""><Description dt:dt=""string"">E-Prime Primary Realtime Clock</Description><StartTime><Timestamp dt:dt=""int"">0</Timestamp><DateUtc dt:dt=""string"">2018-06-14T23:27:22Z</DateUtc></StartTime><FrequencyChanges><FrequencyChange><Frequency dt:dt=""r8"">3020419</Frequency><Timestamp dt:dt=""r8"">82288893538</Timestamp><Current dt:dt=""r8"">0</Current><DateUtc dt:dt=""string"">2018-06-14T23:27:22Z</DateUtc></FrequencyChange></FrequencyChanges></Clock>\n"	000_R01_VB_allProc-004-1	60.024	1.0.0.182	1	685109619	Professional	2.0.10.356	2.0.10.356	06-14-2018	n/a	19:27:22	2.0.10.252	2	0	0	259591	21	259591	3999	-999999	431464	-3	419531	0	Run5Proc	2	1	2	RunList	5	HighLargeED	8000.0	0.0	385544.0	0.0	385544.0	0.0	385544.0	0.0	A5HighLargeEDBlockProc	n/a	n/a	n/a	n/a	n/a	n/a	n/a	n/a	n/a	n/a	n/a	n/a	5.0	1.0	5.0	Run5BlockList	2	n/a	n/a	n/a	n/a	n/a	n/a	n/a	n/a	n/a	n/a	n/a	n/a	2.0	1.0	2.0	n/a	n/a	n/a	n/a	n/a	n/a	n/a	n/a	n/a	n/a	n/a	n/a	n/a	n/a	n/a	n/a	n/a	n/a	n/a	n/a	n/a	n/a	n/a	n/a	n/a	n/a	n/a	n/a	n/a	n/a	n/a	n/a	n/a	n/a	n/a	n/a	n/a	n/a	n/a	n/a	n/a	n/a	n/a	n/a	n/a	n/a	n/a	n/a	n/a	n/a	n/a	n/a	n/a	n/a	n/a	n/a	n/a	n/a	n/a	n/a	n/a	n/a	n/a	n/a	n/a	n/a	n/a	n/a	n/a	n/a	n/a	n/a	n/a	n/a	n/a	A5_02.jpg	500	0	373049	-1	373049	0	TrialProc1	A5HighLargeEDBlockList	2500	0	370550	0	370550	0	370550	2499	d	1437	371987	110.96
114	2.5	000_R01_VB_allProc	4	1	"<?xml version=""1.0""?>\n<Clock xmlns:dt=""urn:schemas-microsoft-com:datatypes""><Description dt:dt=""string"">E-Prime Primary Realtime Clock</Description><StartTime><Timestamp dt:dt=""int"">0</Timestamp><DateUtc dt:dt=""string"">2018-06-14T23:27:22Z</DateUtc></StartTime><FrequencyChanges><FrequencyChange><Frequency dt:dt=""r8"">3020419</Frequency><Timestamp dt:dt=""r8"">82288893538</Timestamp><Current dt:dt=""r8"">0</Current><DateUtc dt:dt=""string"">2018-06-14T23:27:22Z</DateUtc></FrequencyChange></FrequencyChanges></Clock>\n"	000_R01_VB_allProc-004-1	60.024	1.0.0.182	1	685109619	Professional	2.0.10.356	2.0.10.356	06-14-2018	n/a	19:27:22	2.0.10.252	2	0	0	259591	21	259591	3999	-999999	431464	-3	419531	0	Run5Proc	2	1	2	RunList	5	HighLargeED	8000.0	0.0	385544.0	0.0	385544.0	0.0	385544.0	0.0	A5HighLargeEDBlockProc	n/a	n/a	n/a	n/a	n/a	n/a	n/a	n/a	n/a	n/a	n/a	n/a	5.0	1.0	5.0	Run5BlockList	3	n/a	n/a	n/a	n/a	n/a	n/a	n/a	n/a	n/a	n/a	n/a	n/a	3.0	1.0	3.0	n/a	n/a	n/a	n/a	n/a	n/a	n/a	n/a	n/a	n/a	n/a	n/a	n/a	n/a	n/a	n/a	n/a	n/a	n/a	n/a	n/a	n/a	n/a	n/a	n/a	n/a	n/a	n/a	n/a	n/a	n/a	n/a	n/a	n/a	n/a	n/a	n/a	n/a	n/a	n/a	n/a	n/a	n/a	n/a	n/a	n/a	n/a	n/a	n/a	n/a	n/a	n/a	n/a	n/a	n/a	n/a	n/a	n/a	n/a	n/a	n/a	n/a	n/a	n/a	n/a	n/a	n/a	n/a	n/a	n/a	n/a	n/a	n/a	n/a	n/a	A5_03.jpg	500	0	376048	0	376048	0	TrialProc1	A5HighLargeEDBlockList	2500	1	373549	1	373549	-1	373548	2500	d	1214	374762	113.958
117	2.5	000_R01_VB_allProc	4	1	"<?xml version=""1.0""?>\n<Clock xmlns:dt=""urn:schemas-microsoft-com:datatypes""><Description dt:dt=""string"">E-Prime Primary Realtime Clock</Description><StartTime><Timestamp dt:dt=""int"">0</Timestamp><DateUtc dt:dt=""string"">2018-06-14T23:27:22Z</DateUtc></StartTime><FrequencyChanges><FrequencyChange><Frequency dt:dt=""r8"">3020419</Frequency><Timestamp dt:dt=""r8"">82288893538</Timestamp><Current dt:dt=""r8"">0</Current><DateUtc dt:dt=""string"">2018-06-14T23:27:22Z</DateUtc></FrequencyChange></FrequencyChanges></Clock>\n"	000_R01_VB_allProc-004-1	60.024	1.0.0.182	1	685109619	Professional	2.0.10.356	2.0.10.356	06-14-2018	n/a	19:27:22	2.0.10.252	2	0	0	259591	21	259591	3999	-999999	431464	-3	419531	0	Run5Proc	2	1	2	RunList	5	HighLargeED	8000.0	0.0	385544.0	0.0	385544.0	0.0	385544.0	0.0	A5HighLargeEDBlockProc	n/a	n/a	n/a	n/a	n/a	n/a	n/a	n/a	n/a	n/a	n/a	n/a	5.0	1.0	5.0	Run5BlockList	4	n/a	n/a	n/a	n/a	n/a	n/a	n/a	n/a	n/a	n/a	n/a	n/a	4.0	1.0	4.0	n/a	n/a	n/a	n/a	n/a	n/a	n/a	n/a	n/a	n/a	n/a	n/a	n/a	n/a	n/a	n/a	n/a	n/a	n/a	n/a	n/a	n/a	n/a	n/a	n/a	n/a	n/a	n/a	n/a	n/a	n/a	n/a	n/a	n/a	n/a	n/a	n/a	n/a	n/a	n/a	n/a	n/a	n/a	n/a	n/a	n/a	n/a	n/a	n/a	n/a	n/a	n/a	n/a	n/a	n/a	n/a	n/a	n/a	n/a	n/a	n/a	n/a	n/a	n/a	n/a	n/a	n/a	n/a	n/a	n/a	n/a	n/a	n/a	n/a	n/a	A5_04.jpg	500	0	379046	-1	379046	0	TrialProc1	A5HighLargeEDBlockList	2500	0	376547	0	376547	-1	376547	2499	d	687	377234	116.957
120	2.5	000_R01_VB_allProc	4	1	"<?xml version=""1.0""?>\n<Clock xmlns:dt=""urn:schemas-microsoft-com:datatypes""><Description dt:dt=""string"">E-Prime Primary Realtime Clock</Description><StartTime><Timestamp dt:dt=""int"">0</Timestamp><DateUtc dt:dt=""string"">2018-06-14T23:27:22Z</DateUtc></StartTime><FrequencyChanges><FrequencyChange><Frequency dt:dt=""r8"">3020419</Frequency><Timestamp dt:dt=""r8"">82288893538</Timestamp><Current dt:dt=""r8"">0</Current><DateUtc dt:dt=""string"">2018-06-14T23:27:22Z</DateUtc></FrequencyChange></FrequencyChanges></Clock>\n"	000_R01_VB_allProc-004-1	60.024	1.0.0.182	1	685109619	Professional	2.0.10.356	2.0.10.356	06-14-2018	n/a	19:27:22	2.0.10.252	2	0	0	259591	21	259591	3999	-999999	431464	-3	419531	0	Run5Proc	2	1	2	RunList	5	HighLargeED	8000.0	0.0	385544.0	0.0	385544.0	0.0	385544.0	0.0	A5HighLargeEDBlockProc	n/a	n/a	n/a	n/a	n/a	n/a	n/a	n/a	n/a	n/a	n/a	n/a	5.0	1.0	5.0	Run5BlockList	5	n/a	n/a	n/a	n/a	n/a	n/a	n/a	n/a	n/a	n/a	n/a	n/a	5.0	1.0	5.0	n/a	n/a	n/a	n/a	n/a	n/a	n/a	n/a	n/a	n/a	n/a	n/a	n/a	n/a	n/a	n/a	n/a	n/a	n/a	n/a	n/a	n/a	n/a	n/a	n/a	n/a	n/a	n/a	n/a	n/a	n/a	n/a	n/a	n/a	n/a	n/a	n/a	n/a	n/a	n/a	n/a	n/a	n/a	n/a	n/a	n/a	n/a	n/a	n/a	n/a	n/a	n/a	n/a	n/a	n/a	n/a	n/a	n/a	n/a	n/a	n/a	n/a	n/a	n/a	n/a	n/a	n/a	n/a	n/a	n/a	n/a	n/a	n/a	n/a	n/a	A5_05.jpg	500	0	382045	-1	382045	0	TrialProc1	A5HighLargeEDBlockList	2500	0	379546	0	379546	0	379546	2499	d	856	380402	119.956
123	2.5	000_R01_VB_allProc	4	1	"<?xml version=""1.0""?>\n<Clock xmlns:dt=""urn:schemas-microsoft-com:datatypes""><Description dt:dt=""string"">E-Prime Primary Realtime Clock</Description><StartTime><Timestamp dt:dt=""int"">0</Timestamp><DateUtc dt:dt=""string"">2018-06-14T23:27:22Z</DateUtc></StartTime><FrequencyChanges><FrequencyChange><Frequency dt:dt=""r8"">3020419</Frequency><Timestamp dt:dt=""r8"">82288893538</Timestamp><Current dt:dt=""r8"">0</Current><DateUtc dt:dt=""string"">2018-06-14T23:27:22Z</DateUtc></FrequencyChange></FrequencyChanges></Clock>\n"	000_R01_VB_allProc-004-1	60.024	1.0.0.182	1	685109619	Professional	2.0.10.356	2.0.10.356	06-14-2018	n/a	19:27:22	2.0.10.252	2	0	0	259591	21	259591	3999	-999999	431464	-3	419531	0	Run5Proc	2	1	2	RunList	5	HighLargeED	8000.0	0.0	385544.0	0.0	385544.0	0.0	385544.0	0.0	A5HighLargeEDBlockProc	n/a	n/a	n/a	n/a	n/a	n/a	n/a	n/a	n/a	n/a	n/a	n/a	5.0	1.0	5.0	Run5BlockList	6	n/a	n/a	n/a	n/a	n/a	n/a	n/a	n/a	n/a	n/a	n/a	n/a	6.0	1.0	6.0	n/a	n/a	n/a	n/a	n/a	n/a	n/a	n/a	n/a	n/a	n/a	n/a	n/a	n/a	n/a	n/a	n/a	n/a	n/a	n/a	n/a	n/a	n/a	n/a	n/a	n/a	n/a	n/a	n/a	n/a	n/a	n/a	n/a	n/a	n/a	n/a	n/a	n/a	n/a	n/a	n/a	n/a	n/a	n/a	n/a	n/a	n/a	n/a	n/a	n/a	n/a	n/a	n/a	n/a	n/a	n/a	n/a	n/a	n/a	n/a	n/a	n/a	n/a	n/a	n/a	n/a	n/a	n/a	n/a	n/a	n/a	n/a	n/a	n/a	n/a	A5_06.jpg	500	0	385044	-1	385044	0	TrialProc1	A5HighLargeEDBlockList	2500	0	382545	0	382545	0	382545	2499	d	457	383002	122.955
134	2.5	000_R01_VB_allProc	4	1	"<?xml version=""1.0""?>\n<Clock xmlns:dt=""urn:schemas-microsoft-com:datatypes""><Description dt:dt=""string"">E-Prime Primary Realtime Clock</Description><StartTime><Timestamp dt:dt=""int"">0</Timestamp><DateUtc dt:dt=""string"">2018-06-14T23:27:22Z</DateUtc></StartTime><FrequencyChanges><FrequencyChange><Frequency dt:dt=""r8"">3020419</Frequency><Timestamp dt:dt=""r8"">82288893538</Timestamp><Current dt:dt=""r8"">0</Current><DateUtc dt:dt=""string"">2018-06-14T23:27:22Z</DateUtc></FrequencyChange></FrequencyChanges></Clock>\n"	000_R01_VB_allProc-004-1	60.024	1.0.0.182	1	685109619	Professional	2.0.10.356	2.0.10.356	06-14-2018	n/a	19:27:22	2.0.10.252	2	0	0	259591	21	259591	3999	-999999	431464	-3	419531	0	Run5Proc	2	1	2	RunList	6	LowSmallED	8000.0	0.0	411534.0	0.0	411534.0	0.0	411534.0	0.0	D5LowSmallEDBlockProc	n/a	n/a	n/a	n/a	n/a	n/a	n/a	n/a	n/a	n/a	n/a	n/a	6.0	1.0	6.0	Run5BlockList	1	n/a	n/a	n/a	n/a	n/a	n/a	n/a	n/a	n/a	n/a	n/a	n/a	n/a	n/a	n/a	n/a	n/a	n/a	n/a	n/a	n/a	n/a	n/a	n/a	n/a	n/a	n/a	n/a	n/a	n/a	n/a	n/a	n/a	n/a	n/a	n/a	n/a	n/a	n/a	n/a	n/a	n/a	n/a	n/a	n/a	n/a	n/a	n/a	n/a	n/a	n/a	n/a	n/a	n/a	n/a	n/a	n/a	1.0	1.0	1.0	n/a	n/a	n/a	n/a	n/a	n/a	n/a	n/a	n/a	n/a	n/a	n/a	n/a	n/a	n/a	n/a	n/a	n/a	n/a	n/a	n/a	n/a	n/a	n/a	n/a	n/a	n/a	n/a	n/a	n/a	D5_01.jpg	500	0	396040	-1	396040	0	TrialProc1	D5LowSmallEDBlockList	2500	0	393541	0	393541	-3	393541	2499	d	605	394146	133.951
137	2.5	000_R01_VB_allProc	4	1	"<?xml version=""1.0""?>\n<Clock xmlns:dt=""urn:schemas-microsoft-com:datatypes""><Description dt:dt=""string"">E-Prime Primary Realtime Clock</Description><StartTime><Timestamp dt:dt=""int"">0</Timestamp><DateUtc dt:dt=""string"">2018-06-14T23:27:22Z</DateUtc></StartTime><FrequencyChanges><FrequencyChange><Frequency dt:dt=""r8"">3020419</Frequency><Timestamp dt:dt=""r8"">82288893538</Timestamp><Current dt:dt=""r8"">0</Current><DateUtc dt:dt=""string"">2018-06-14T23:27:22Z</DateUtc></FrequencyChange></FrequencyChanges></Clock>\n"	000_R01_VB_allProc-004-1	60.024	1.0.0.182	1	685109619	Professional	2.0.10.356	2.0.10.356	06-14-2018	n/a	19:27:22	2.0.10.252	2	0	0	259591	21	259591	3999	-999999	431464	-3	419531	0	Run5Proc	2	1	2	RunList	6	LowSmallED	8000.0	0.0	411534.0	0.0	411534.0	0.0	411534.0	0.0	D5LowSmallEDBlockProc	n/a	n/a	n/a	n/a	n/a	n/a	n/a	n/a	n/a	n/a	n/a	n/a	6.0	1.0	6.0	Run5BlockList	2	n/a	n/a	n/a	n/a	n/a	n/a	n/a	n/a	n/a	n/a	n/a	n/a	n/a	n/a	n/a	n/a	n/a	n/a	n/a	n/a	n/a	n/a	n/a	n/a	n/a	n/a	n/a	n/a	n/a	n/a	n/a	n/a	n/a	n/a	n/a	n/a	n/a	n/a	n/a	n/a	n/a	n/a	n/a	n/a	n/a	n/a	n/a	n/a	n/a	n/a	n/a	n/a	n/a	n/a	n/a	n/a	n/a	2.0	1.0	2.0	n/a	n/a	n/a	n/a	n/a	n/a	n/a	n/a	n/a	n/a	n/a	n/a	n/a	n/a	n/a	n/a	n/a	n/a	n/a	n/a	n/a	n/a	n/a	n/a	n/a	n/a	n/a	n/a	n/a	n/a	D5_02.jpg	500	0	399039	-1	399039	0	TrialProc1	D5LowSmallEDBlockList	2500	0	396540	0	396540	0	396540	2499	d	678	397218	136.95
140	2.5	000_R01_VB_allProc	4	1	"<?xml version=""1.0""?>\n<Clock xmlns:dt=""urn:schemas-microsoft-com:datatypes""><Description dt:dt=""string"">E-Prime Primary Realtime Clock</Description><StartTime><Timestamp dt:dt=""int"">0</Timestamp><DateUtc dt:dt=""string"">2018-06-14T23:27:22Z</DateUtc></StartTime><FrequencyChanges><FrequencyChange><Frequency dt:dt=""r8"">3020419</Frequency><Timestamp dt:dt=""r8"">82288893538</Timestamp><Current dt:dt=""r8"">0</Current><DateUtc dt:dt=""string"">2018-06-14T23:27:22Z</DateUtc></FrequencyChange></FrequencyChanges></Clock>\n"	000_R01_VB_allProc-004-1	60.024	1.0.0.182	1	685109619	Professional	2.0.10.356	2.0.10.356	06-14-2018	n/a	19:27:22	2.0.10.252	2	0	0	259591	21	259591	3999	-999999	431464	-3	419531	0	Run5Proc	2	1	2	RunList	6	LowSmallED	8000.0	0.0	411534.0	0.0	411534.0	0.0	411534.0	0.0	D5LowSmallEDBlockProc	n/a	n/a	n/a	n/a	n/a	n/a	n/a	n/a	n/a	n/a	n/a	n/a	6.0	1.0	6.0	Run5BlockList	3	n/a	n/a	n/a	n/a	n/a	n/a	n/a	n/a	n/a	n/a	n/a	n/a	n/a	n/a	n/a	n/a	n/a	n/a	n/a	n/a	n/a	n/a	n/a	n/a	n/a	n/a	n/a	n/a	n/a	n/a	n/a	n/a	n/a	n/a	n/a	n/a	n/a	n/a	n/a	n/a	n/a	n/a	n/a	n/a	n/a	n/a	n/a	n/a	n/a	n/a	n/a	n/a	n/a	n/a	n/a	n/a	n/a	3.0	1.0	3.0	n/a	n/a	n/a	n/a	n/a	n/a	n/a	n/a	n/a	n/a	n/a	n/a	n/a	n/a	n/a	n/a	n/a	n/a	n/a	n/a	n/a	n/a	n/a	n/a	n/a	n/a	n/a	n/a	n/a	n/a	D5_03.jpg	500	0	402038	-1	402038	0	TrialProc1	D5LowSmallEDBlockList	2500	0	399539	0	399539	0	399539	2499	d	911	400450	139.949
143	2.5	000_R01_VB_allProc	4	1	"<?xml version=""1.0""?>\n<Clock xmlns:dt=""urn:schemas-microsoft-com:datatypes""><Description dt:dt=""string"">E-Prime Primary Realtime Clock</Description><StartTime><Timestamp dt:dt=""int"">0</Timestamp><DateUtc dt:dt=""string"">2018-06-14T23:27:22Z</DateUtc></StartTime><FrequencyChanges><FrequencyChange><Frequency dt:dt=""r8"">3020419</Frequency><Timestamp dt:dt=""r8"">82288893538</Timestamp><Current dt:dt=""r8"">0</Current><DateUtc dt:dt=""string"">2018-06-14T23:27:22Z</DateUtc></FrequencyChange></FrequencyChanges></Clock>\n"	000_R01_VB_allProc-004-1	60.024	1.0.0.182	1	685109619	Professional	2.0.10.356	2.0.10.356	06-14-2018	n/a	19:27:22	2.0.10.252	2	0	0	259591	21	259591	3999	-999999	431464	-3	419531	0	Run5Proc	2	1	2	RunList	6	LowSmallED	8000.0	0.0	411534.0	0.0	411534.0	0.0	411534.0	0.0	D5LowSmallEDBlockProc	n/a	n/a	n/a	n/a	n/a	n/a	n/a	n/a	n/a	n/a	n/a	n/a	6.0	1.0	6.0	Run5BlockList	4	n/a	n/a	n/a	n/a	n/a	n/a	n/a	n/a	n/a	n/a	n/a	n/a	n/a	n/a	n/a	n/a	n/a	n/a	n/a	n/a	n/a	n/a	n/a	n/a	n/a	n/a	n/a	n/a	n/a	n/a	n/a	n/a	n/a	n/a	n/a	n/a	n/a	n/a	n/a	n/a	n/a	n/a	n/a	n/a	n/a	n/a	n/a	n/a	n/a	n/a	n/a	n/a	n/a	n/a	n/a	n/a	n/a	4.0	1.0	4.0	n/a	n/a	n/a	n/a	n/a	n/a	n/a	n/a	n/a	n/a	n/a	n/a	n/a	n/a	n/a	n/a	n/a	n/a	n/a	n/a	n/a	n/a	n/a	n/a	n/a	n/a	n/a	n/a	n/a	n/a	D5_04.jpg	500	0	405037	-1	405037	0	TrialProc1	D5LowSmallEDBlockList	2500	0	402538	0	402538	0	402538	2499	d	888	403426	142.948
146	2.5	000_R01_VB_allProc	4	1	"<?xml version=""1.0""?>\n<Clock xmlns:dt=""urn:schemas-microsoft-com:datatypes""><Description dt:dt=""string"">E-Prime Primary Realtime Clock</Description><StartTime><Timestamp dt:dt=""int"">0</Timestamp><DateUtc dt:dt=""string"">2018-06-14T23:27:22Z</DateUtc></StartTime><FrequencyChanges><FrequencyChange><Frequency dt:dt=""r8"">3020419</Frequency><Timestamp dt:dt=""r8"">82288893538</Timestamp><Current dt:dt=""r8"">0</Current><DateUtc dt:dt=""string"">2018-06-14T23:27:22Z</DateUtc></FrequencyChange></FrequencyChanges></Clock>\n"	000_R01_VB_allProc-004-1	60.024	1.0.0.182	1	685109619	Professional	2.0.10.356	2.0.10.356	06-14-2018	n/a	19:27:22	2.0.10.252	2	0	0	259591	21	259591	3999	-999999	431464	-3	419531	0	Run5Proc	2	1	2	RunList	6	LowSmallED	8000.0	0.0	411534.0	0.0	411534.0	0.0	411534.0	0.0	D5LowSmallEDBlockProc	n/a	n/a	n/a	n/a	n/a	n/a	n/a	n/a	n/a	n/a	n/a	n/a	6.0	1.0	6.0	Run5BlockList	5	n/a	n/a	n/a	n/a	n/a	n/a	n/a	n/a	n/a	n/a	n/a	n/a	n/a	n/a	n/a	n/a	n/a	n/a	n/a	n/a	n/a	n/a	n/a	n/a	n/a	n/a	n/a	n/a	n/a	n/a	n/a	n/a	n/a	n/a	n/a	n/a	n/a	n/a	n/a	n/a	n/a	n/a	n/a	n/a	n/a	n/a	n/a	n/a	n/a	n/a	n/a	n/a	n/a	n/a	n/a	n/a	n/a	5.0	1.0	5.0	n/a	n/a	n/a	n/a	n/a	n/a	n/a	n/a	n/a	n/a	n/a	n/a	n/a	n/a	n/a	n/a	n/a	n/a	n/a	n/a	n/a	n/a	n/a	n/a	n/a	n/a	n/a	n/a	n/a	n/a	D5_05.jpg	500	0	408036	0	408036	0	TrialProc1	D5LowSmallEDBlockList	2500	1	405537	1	405537	-1	405536	2500	d	1378	406914	145.946
149	2.5	000_R01_VB_allProc	4	1	"<?xml version=""1.0""?>\n<Clock xmlns:dt=""urn:schemas-microsoft-com:datatypes""><Description dt:dt=""string"">E-Prime Primary Realtime Clock</Description><StartTime><Timestamp dt:dt=""int"">0</Timestamp><DateUtc dt:dt=""string"">2018-06-14T23:27:22Z</DateUtc></StartTime><FrequencyChanges><FrequencyChange><Frequency dt:dt=""r8"">3020419</Frequency><Timestamp dt:dt=""r8"">82288893538</Timestamp><Current dt:dt=""r8"">0</Current><DateUtc dt:dt=""string"">2018-06-14T23:27:22Z</DateUtc></FrequencyChange></FrequencyChanges></Clock>\n"	000_R01_VB_allProc-004-1	60.024	1.0.0.182	1	685109619	Professional	2.0.10.356	2.0.10.356	06-14-2018	n/a	19:27:22	2.0.10.252	2	0	0	259591	21	259591	3999	-999999	431464	-3	419531	0	Run5Proc	2	1	2	RunList	6	LowSmallED	8000.0	0.0	411534.0	0.0	411534.0	0.0	411534.0	0.0	D5LowSmallEDBlockProc	n/a	n/a	n/a	n/a	n/a	n/a	n/a	n/a	n/a	n/a	n/a	n/a	6.0	1.0	6.0	Run5BlockList	6	n/a	n/a	n/a	n/a	n/a	n/a	n/a	n/a	n/a	n/a	n/a	n/a	n/a	n/a	n/a	n/a	n/a	n/a	n/a	n/a	n/a	n/a	n/a	n/a	n/a	n/a	n/a	n/a	n/a	n/a	n/a	n/a	n/a	n/a	n/a	n/a	n/a	n/a	n/a	n/a	n/a	n/a	n/a	n/a	n/a	n/a	n/a	n/a	n/a	n/a	n/a	n/a	n/a	n/a	n/a	n/a	n/a	6.0	1.0	6.0	n/a	n/a	n/a	n/a	n/a	n/a	n/a	n/a	n/a	n/a	n/a	n/a	n/a	n/a	n/a	n/a	n/a	n/a	n/a	n/a	n/a	n/a	n/a	n/a	n/a	n/a	n/a	n/a	n/a	n/a	D5_06.jpg	500	0	411034	-1	411034	0	TrialProc1	D5LowSmallEDBlockList	2500	0	408535	0	408535	-1	408535	2499	d	1155	409690	148.945
