onset	duration	experiment_name	sub	ses	clock_information	datafile_basename	display_refreshrate	experiment_version	group	randomseed	runtime_capabilities	runtime_version	runtimeversionexpected	session_date	session_start_date_time_utc	session_time	studio_version	block	fixation2trs_durationerror	fixation2trs_offsetdelay	fixation2trs_offsettime	fixation2trs_onsetdelay	fixation2trs_onsettime	fixation2trs_onsettoonsettime	goodwork_durationerror	goodwork_finishtime	goodwork_onsetdelay	goodwork_onsettime	goodwork_onsettoonsettime	procedure_block	runlist	runlist_cycle	runlist_sample	running_block	trial	condition	interblockinterval_duration	interblockinterval_durationerror	interblockinterval_finishtime	interblockinterval_offsetdelay	interblockinterval_offsettime	interblockinterval_onsetdelay	interblockinterval_onsettime	interblockinterval_onsettoonsettime	procedure_trial	run1blocklist	run1blocklist_cycle	run1blocklist_sample	run2blocklist	run2blocklist_cycle	run2blocklist_sample	run3blocklist	run3blocklist_cycle	run3blocklist_sample	run4blocklist	run4blocklist_cycle	run4blocklist_sample	run5blocklist	run5blocklist_cycle	run5blocklist_sample	running_trial	subtrial	a1highlargeedblocklist	a1highlargeedblocklist_cycle	a1highlargeedblocklist_sample	a2highlargeedblocklist	a2highlargeedblocklist_cycle	a2highlargeedblocklist_sample	a3highlargeedblocklist	a3highlargeedblocklist_cycle	a3highlargeedblocklist_sample	a4highlargeedblocklist	a4highlargeedblocklist_cycle	a4highlargeedblocklist_sample	a5highlargeedblocklist	a5highlargeedblocklist_cycle	a5highlargeedblocklist_sample	b1highsmalledblocklist	b1highsmalledblocklist_cycle	b1highsmalledblocklist_sample	b2highsmalledblocklist	b2highsmalledblocklist_cycle	b2highsmalledblocklist_sample	b3highsmalledblocklist	b3highsmalledblocklist_cycle	b3highsmalledblocklist_sample	b4highsmalledblocklist	b4highsmalledblocklist_cycle	b4highsmalledblocklist_sample	b5highsmalledblocklist	b5highsmalledblocklist_cycle	b5highsmalledblocklist_sample	c1lowlargeedblocklist	c1lowlargeedblocklist_cycle	c1lowlargeedblocklist_sample	c2lowlargeedblocklist	c2lowlargeedblocklist_cycle	c2lowlargeedblocklist_sample	c3lowlargeedblocklist	c3lowlargeedblocklist_cycle	c3lowlargeedblocklist_sample	c4lowlargeedblocklist	c4lowlargeedblocklist_cycle	c4lowlargeedblocklist_sample	c5lowlargeedblocklist	c5lowlargeedblocklist_cycle	c5lowlargeedblocklist_sample	d1lowsmalledblocklist	d1lowsmalledblocklist_cycle	d1lowsmalledblocklist_sample	d2highlargeedblocklist	d2highlargeedblocklist_cycle	d2highlargeedblocklist_sample	d3lowsmalledblocklist	d3lowsmalledblocklist_cycle	d3lowsmalledblocklist_sample	d4lowsmalledblocklist	d4lowsmalledblocklist_cycle	d4lowsmalledblocklist_sample	d5lowsmalledblocklist	d5lowsmalledblocklist_cycle	d5lowsmalledblocklist_sample	e1officelargeblocklist	e1officelargeblocklist_cycle	e1officelargeblocklist_sample	e2officelargeblocklist	e2officelargeblocklist_cycle	e2officelargeblocklist_sample	e3officelargeblocklist	e3officelargeblocklist_cycle	e3officelargeblocklist_sample	e4officelargeblocklist	e4officelargeblocklist_cycle	e4officelargeblocklist_sample	e5officelargeblocklist	e5officelargeblocklist_cycle	e5officelargeblocklist_sample	f1officesmallblocklist	f1officesmallblocklist_cycle	f1officesmallblocklist_sample	f2officesmallblocklist	f2officesmallblocklist_cycle	f2officesmallblocklist_sample	f3officesmallblocklist	f3officesmallblocklist_cycle	f3officesmallblocklist_sample	f4officesmallblocklist	f4officesmallblocklist_cycle	f4officesmallblocklist_sample	f5officesmallblocklist	f5officesmallblocklist_cycle	f5officesmallblocklist_sample	filename	isi_duration	isi_durationerror	isi_finishtime	isi_onsetdelay	isi_onsettime	isi_onsettoonsettime	procedure_subtrial	running_subtrial	stimslide_duration	stimslide_durationerror	stimslide_finishtime	stimslide_offsetdelay	stimslide_offsettime	stimslide_onsetdelay	stimslide_onsettime	stimslide_onsettoonsettime	stimslide_resp	stimslide_rt	stimslide_rttime	onset_unrounded
4	2.5	000_R01_VB_allProc	4	1	"<?xml version=""1.0""?>\n<Clock xmlns:dt=""urn:schemas-microsoft-com:datatypes""><Description dt:dt=""string"">E-Prime Primary Realtime Clock</Description><StartTime><Timestamp dt:dt=""int"">0</Timestamp><DateUtc dt:dt=""string"">2018-06-14T23:27:22Z</DateUtc></StartTime><FrequencyChanges><FrequencyChange><Frequency dt:dt=""r8"">3020419</Frequency><Timestamp dt:dt=""r8"">82288893538</Timestamp><Current dt:dt=""r8"">0</Current><DateUtc dt:dt=""string"">2018-06-14T23:27:22Z</DateUtc></FrequencyChange></FrequencyChanges></Clock>\n"	000_R01_VB_allProc-004-1	60.024	1.0.0.182	1	685109619	Professional	2.0.10.356	2.0.10.356	06-14-2018	n/a	19:27:22	2.0.10.252	5	0	0	790992	23	790992	3998	-999999	961485	-3	950932	0	Run1Proc	5	1	5	RunList	1	HighLargeED	8000.0	0.0	812984.0	0.0	812984.0	0.0	812984.0	0.0	A1HighLargeEDBlockProc	1.0	1.0	1.0	n/a	n/a	n/a	n/a	n/a	n/a	n/a	n/a	n/a	n/a	n/a	n/a	Run1BlockList	1	1.0	1.0	1.0	n/a	n/a	n/a	n/a	n/a	n/a	n/a	n/a	n/a	n/a	n/a	n/a	n/a	n/a	n/a	n/a	n/a	n/a	n/a	n/a	n/a	n/a	n/a	n/a	n/a	n/a	n/a	n/a	n/a	n/a	n/a	n/a	n/a	n/a	n/a	n/a	n/a	n/a	n/a	n/a	n/a	n/a	n/a	n/a	n/a	n/a	n/a	n/a	n/a	n/a	n/a	n/a	n/a	n/a	n/a	n/a	n/a	n/a	n/a	n/a	n/a	n/a	n/a	n/a	n/a	n/a	n/a	n/a	n/a	n/a	n/a	n/a	n/a	n/a	n/a	n/a	n/a	n/a	n/a	n/a	n/a	n/a	n/a	n/a	n/a	n/a	n/a	A1_01.jpg	500	1	797490	-1	797489	0	TrialProc1	A1HighLargeEDBlockList	2500	1	794991	1	794991	-2	794990	2499	d	1395	796385	4.0
7	2.5	000_R01_VB_allProc	4	1	"<?xml version=""1.0""?>\n<Clock xmlns:dt=""urn:schemas-microsoft-com:datatypes""><Description dt:dt=""string"">E-Prime Primary Realtime Clock</Description><StartTime><Timestamp dt:dt=""int"">0</Timestamp><DateUtc dt:dt=""string"">2018-06-14T23:27:22Z</DateUtc></StartTime><FrequencyChanges><FrequencyChange><Frequency dt:dt=""r8"">3020419</Frequency><Timestamp dt:dt=""r8"">82288893538</Timestamp><Current dt:dt=""r8"">0</Current><DateUtc dt:dt=""string"">2018-06-14T23:27:22Z</DateUtc></FrequencyChange></FrequencyChanges></Clock>\n"	000_R01_VB_allProc-004-1	60.024	1.0.0.182	1	685109619	Professional	2.0.10.356	2.0.10.356	06-14-2018	n/a	19:27:22	2.0.10.252	5	0	0	790992	23	790992	3998	-999999	961485	-3	950932	0	Run1Proc	5	1	5	RunList	1	HighLargeED	8000.0	0.0	812984.0	0.0	812984.0	0.0	812984.0	0.0	A1HighLargeEDBlockProc	1.0	1.0	1.0	n/a	n/a	n/a	n/a	n/a	n/a	n/a	n/a	n/a	n/a	n/a	n/a	Run1BlockList	2	2.0	1.0	2.0	n/a	n/a	n/a	n/a	n/a	n/a	n/a	n/a	n/a	n/a	n/a	n/a	n/a	n/a	n/a	n/a	n/a	n/a	n/a	n/a	n/a	n/a	n/a	n/a	n/a	n/a	n/a	n/a	n/a	n/a	n/a	n/a	n/a	n/a	n/a	n/a	n/a	n/a	n/a	n/a	n/a	n/a	n/a	n/a	n/a	n/a	n/a	n/a	n/a	n/a	n/a	n/a	n/a	n/a	n/a	n/a	n/a	n/a	n/a	n/a	n/a	n/a	n/a	n/a	n/a	n/a	n/a	n/a	n/a	n/a	n/a	n/a	n/a	n/a	n/a	n/a	n/a	n/a	n/a	n/a	n/a	n/a	n/a	n/a	n/a	n/a	n/a	A1_02.jpg	500	1	800489	-1	800488	0	TrialProc1	A1HighLargeEDBlockList	2500	0	797989	0	797989	0	797989	2499	d	1044	799033	6.9990000000000006
10	2.5	000_R01_VB_allProc	4	1	"<?xml version=""1.0""?>\n<Clock xmlns:dt=""urn:schemas-microsoft-com:datatypes""><Description dt:dt=""string"">E-Prime Primary Realtime Clock</Description><StartTime><Timestamp dt:dt=""int"">0</Timestamp><DateUtc dt:dt=""string"">2018-06-14T23:27:22Z</DateUtc></StartTime><FrequencyChanges><FrequencyChange><Frequency dt:dt=""r8"">3020419</Frequency><Timestamp dt:dt=""r8"">82288893538</Timestamp><Current dt:dt=""r8"">0</Current><DateUtc dt:dt=""string"">2018-06-14T23:27:22Z</DateUtc></FrequencyChange></FrequencyChanges></Clock>\n"	000_R01_VB_allProc-004-1	60.024	1.0.0.182	1	685109619	Professional	2.0.10.356	2.0.10.356	06-14-2018	n/a	19:27:22	2.0.10.252	5	0	0	790992	23	790992	3998	-999999	961485	-3	950932	0	Run1Proc	5	1	5	RunList	1	HighLargeED	8000.0	0.0	812984.0	0.0	812984.0	0.0	812984.0	0.0	A1HighLargeEDBlockProc	1.0	1.0	1.0	n/a	n/a	n/a	n/a	n/a	n/a	n/a	n/a	n/a	n/a	n/a	n/a	Run1BlockList	3	3.0	1.0	3.0	n/a	n/a	n/a	n/a	n/a	n/a	n/a	n/a	n/a	n/a	n/a	n/a	n/a	n/a	n/a	n/a	n/a	n/a	n/a	n/a	n/a	n/a	n/a	n/a	n/a	n/a	n/a	n/a	n/a	n/a	n/a	n/a	n/a	n/a	n/a	n/a	n/a	n/a	n/a	n/a	n/a	n/a	n/a	n/a	n/a	n/a	n/a	n/a	n/a	n/a	n/a	n/a	n/a	n/a	n/a	n/a	n/a	n/a	n/a	n/a	n/a	n/a	n/a	n/a	n/a	n/a	n/a	n/a	n/a	n/a	n/a	n/a	n/a	n/a	n/a	n/a	n/a	n/a	n/a	n/a	n/a	n/a	n/a	n/a	n/a	n/a	n/a	A1_03.jpg	500	0	803487	-1	803487	0	TrialProc1	A1HighLargeEDBlockList	2500	0	800988	0	800988	0	800988	2499	d	781	801769	9.998000000000001
13	2.5	000_R01_VB_allProc	4	1	"<?xml version=""1.0""?>\n<Clock xmlns:dt=""urn:schemas-microsoft-com:datatypes""><Description dt:dt=""string"">E-Prime Primary Realtime Clock</Description><StartTime><Timestamp dt:dt=""int"">0</Timestamp><DateUtc dt:dt=""string"">2018-06-14T23:27:22Z</DateUtc></StartTime><FrequencyChanges><FrequencyChange><Frequency dt:dt=""r8"">3020419</Frequency><Timestamp dt:dt=""r8"">82288893538</Timestamp><Current dt:dt=""r8"">0</Current><DateUtc dt:dt=""string"">2018-06-14T23:27:22Z</DateUtc></FrequencyChange></FrequencyChanges></Clock>\n"	000_R01_VB_allProc-004-1	60.024	1.0.0.182	1	685109619	Professional	2.0.10.356	2.0.10.356	06-14-2018	n/a	19:27:22	2.0.10.252	5	0	0	790992	23	790992	3998	-999999	961485	-3	950932	0	Run1Proc	5	1	5	RunList	1	HighLargeED	8000.0	0.0	812984.0	0.0	812984.0	0.0	812984.0	0.0	A1HighLargeEDBlockProc	1.0	1.0	1.0	n/a	n/a	n/a	n/a	n/a	n/a	n/a	n/a	n/a	n/a	n/a	n/a	Run1BlockList	4	4.0	1.0	4.0	n/a	n/a	n/a	n/a	n/a	n/a	n/a	n/a	n/a	n/a	n/a	n/a	n/a	n/a	n/a	n/a	n/a	n/a	n/a	n/a	n/a	n/a	n/a	n/a	n/a	n/a	n/a	n/a	n/a	n/a	n/a	n/a	n/a	n/a	n/a	n/a	n/a	n/a	n/a	n/a	n/a	n/a	n/a	n/a	n/a	n/a	n/a	n/a	n/a	n/a	n/a	n/a	n/a	n/a	n/a	n/a	n/a	n/a	n/a	n/a	n/a	n/a	n/a	n/a	n/a	n/a	n/a	n/a	n/a	n/a	n/a	n/a	n/a	n/a	n/a	n/a	n/a	n/a	n/a	n/a	n/a	n/a	n/a	n/a	n/a	n/a	n/a	A1_04.jpg	500	0	806486	-1	806486	0	TrialProc1	A1HighLargeEDBlockList	2500	0	803987	0	803987	0	803987	2499	d	398	804385	12.997
16	2.5	000_R01_VB_allProc	4	1	"<?xml version=""1.0""?>\n<Clock xmlns:dt=""urn:schemas-microsoft-com:datatypes""><Description dt:dt=""string"">E-Prime Primary Realtime Clock</Description><StartTime><Timestamp dt:dt=""int"">0</Timestamp><DateUtc dt:dt=""string"">2018-06-14T23:27:22Z</DateUtc></StartTime><FrequencyChanges><FrequencyChange><Frequency dt:dt=""r8"">3020419</Frequency><Timestamp dt:dt=""r8"">82288893538</Timestamp><Current dt:dt=""r8"">0</Current><DateUtc dt:dt=""string"">2018-06-14T23:27:22Z</DateUtc></FrequencyChange></FrequencyChanges></Clock>\n"	000_R01_VB_allProc-004-1	60.024	1.0.0.182	1	685109619	Professional	2.0.10.356	2.0.10.356	06-14-2018	n/a	19:27:22	2.0.10.252	5	0	0	790992	23	790992	3998	-999999	961485	-3	950932	0	Run1Proc	5	1	5	RunList	1	HighLargeED	8000.0	0.0	812984.0	0.0	812984.0	0.0	812984.0	0.0	A1HighLargeEDBlockProc	1.0	1.0	1.0	n/a	n/a	n/a	n/a	n/a	n/a	n/a	n/a	n/a	n/a	n/a	n/a	Run1BlockList	5	5.0	1.0	5.0	n/a	n/a	n/a	n/a	n/a	n/a	n/a	n/a	n/a	n/a	n/a	n/a	n/a	n/a	n/a	n/a	n/a	n/a	n/a	n/a	n/a	n/a	n/a	n/a	n/a	n/a	n/a	n/a	n/a	n/a	n/a	n/a	n/a	n/a	n/a	n/a	n/a	n/a	n/a	n/a	n/a	n/a	n/a	n/a	n/a	n/a	n/a	n/a	n/a	n/a	n/a	n/a	n/a	n/a	n/a	n/a	n/a	n/a	n/a	n/a	n/a	n/a	n/a	n/a	n/a	n/a	n/a	n/a	n/a	n/a	n/a	n/a	n/a	n/a	n/a	n/a	n/a	n/a	n/a	n/a	n/a	n/a	n/a	n/a	n/a	n/a	n/a	A1_05.jpg	500	0	809485	-1	809485	0	TrialProc1	A1HighLargeEDBlockList	2500	0	806986	0	806986	0	806986	2499	d	439	807425	15.996
19	2.5	000_R01_VB_allProc	4	1	"<?xml version=""1.0""?>\n<Clock xmlns:dt=""urn:schemas-microsoft-com:datatypes""><Description dt:dt=""string"">E-Prime Primary Realtime Clock</Description><StartTime><Timestamp dt:dt=""int"">0</Timestamp><DateUtc dt:dt=""string"">2018-06-14T23:27:22Z</DateUtc></StartTime><FrequencyChanges><FrequencyChange><Frequency dt:dt=""r8"">3020419</Frequency><Timestamp dt:dt=""r8"">82288893538</Timestamp><Current dt:dt=""r8"">0</Current><DateUtc dt:dt=""string"">2018-06-14T23:27:22Z</DateUtc></FrequencyChange></FrequencyChanges></Clock>\n"	000_R01_VB_allProc-004-1	60.024	1.0.0.182	1	685109619	Professional	2.0.10.356	2.0.10.356	06-14-2018	n/a	19:27:22	2.0.10.252	5	0	0	790992	23	790992	3998	-999999	961485	-3	950932	0	Run1Proc	5	1	5	RunList	1	HighLargeED	8000.0	0.0	812984.0	0.0	812984.0	0.0	812984.0	0.0	A1HighLargeEDBlockProc	1.0	1.0	1.0	n/a	n/a	n/a	n/a	n/a	n/a	n/a	n/a	n/a	n/a	n/a	n/a	Run1BlockList	6	6.0	1.0	6.0	n/a	n/a	n/a	n/a	n/a	n/a	n/a	n/a	n/a	n/a	n/a	n/a	n/a	n/a	n/a	n/a	n/a	n/a	n/a	n/a	n/a	n/a	n/a	n/a	n/a	n/a	n/a	n/a	n/a	n/a	n/a	n/a	n/a	n/a	n/a	n/a	n/a	n/a	n/a	n/a	n/a	n/a	n/a	n/a	n/a	n/a	n/a	n/a	n/a	n/a	n/a	n/a	n/a	n/a	n/a	n/a	n/a	n/a	n/a	n/a	n/a	n/a	n/a	n/a	n/a	n/a	n/a	n/a	n/a	n/a	n/a	n/a	n/a	n/a	n/a	n/a	n/a	n/a	n/a	n/a	n/a	n/a	n/a	n/a	n/a	n/a	n/a	A1_06.jpg	500	0	812484	-1	812484	0	TrialProc1	A1HighLargeEDBlockList	2500	0	809985	0	809985	0	809985	2499	d	648	810633	18.994999999999997
30	2.5	000_R01_VB_allProc	4	1	"<?xml version=""1.0""?>\n<Clock xmlns:dt=""urn:schemas-microsoft-com:datatypes""><Description dt:dt=""string"">E-Prime Primary Realtime Clock</Description><StartTime><Timestamp dt:dt=""int"">0</Timestamp><DateUtc dt:dt=""string"">2018-06-14T23:27:22Z</DateUtc></StartTime><FrequencyChanges><FrequencyChange><Frequency dt:dt=""r8"">3020419</Frequency><Timestamp dt:dt=""r8"">82288893538</Timestamp><Current dt:dt=""r8"">0</Current><DateUtc dt:dt=""string"">2018-06-14T23:27:22Z</DateUtc></FrequencyChange></FrequencyChanges></Clock>\n"	000_R01_VB_allProc-004-1	60.024	1.0.0.182	1	685109619	Professional	2.0.10.356	2.0.10.356	06-14-2018	n/a	19:27:22	2.0.10.252	5	0	0	790992	23	790992	3998	-999999	961485	-3	950932	0	Run1Proc	5	1	5	RunList	2	OfficeSmall	8000.0	0.0	838974.0	0.0	838974.0	0.0	838974.0	0.0	F1OfficeSmallBlockProc	2.0	1.0	2.0	n/a	n/a	n/a	n/a	n/a	n/a	n/a	n/a	n/a	n/a	n/a	n/a	Run1BlockList	1	n/a	n/a	n/a	n/a	n/a	n/a	n/a	n/a	n/a	n/a	n/a	n/a	n/a	n/a	n/a	n/a	n/a	n/a	n/a	n/a	n/a	n/a	n/a	n/a	n/a	n/a	n/a	n/a	n/a	n/a	n/a	n/a	n/a	n/a	n/a	n/a	n/a	n/a	n/a	n/a	n/a	n/a	n/a	n/a	n/a	n/a	n/a	n/a	n/a	n/a	n/a	n/a	n/a	n/a	n/a	n/a	n/a	n/a	n/a	n/a	n/a	n/a	n/a	n/a	n/a	n/a	n/a	n/a	n/a	n/a	n/a	n/a	n/a	n/a	n/a	1.0	1.0	1.0	n/a	n/a	n/a	n/a	n/a	n/a	n/a	n/a	n/a	n/a	n/a	n/a	F1_01.jpg	500	0	823480	-1	823480	0	TrialProc1	F1OfficeSmallBlockList	2500	0	820981	0	820981	-3	820981	2499	c	1668	822649	29.991
33	2.5	000_R01_VB_allProc	4	1	"<?xml version=""1.0""?>\n<Clock xmlns:dt=""urn:schemas-microsoft-com:datatypes""><Description dt:dt=""string"">E-Prime Primary Realtime Clock</Description><StartTime><Timestamp dt:dt=""int"">0</Timestamp><DateUtc dt:dt=""string"">2018-06-14T23:27:22Z</DateUtc></StartTime><FrequencyChanges><FrequencyChange><Frequency dt:dt=""r8"">3020419</Frequency><Timestamp dt:dt=""r8"">82288893538</Timestamp><Current dt:dt=""r8"">0</Current><DateUtc dt:dt=""string"">2018-06-14T23:27:22Z</DateUtc></FrequencyChange></FrequencyChanges></Clock>\n"	000_R01_VB_allProc-004-1	60.024	1.0.0.182	1	685109619	Professional	2.0.10.356	2.0.10.356	06-14-2018	n/a	19:27:22	2.0.10.252	5	0	0	790992	23	790992	3998	-999999	961485	-3	950932	0	Run1Proc	5	1	5	RunList	2	OfficeSmall	8000.0	0.0	838974.0	0.0	838974.0	0.0	838974.0	0.0	F1OfficeSmallBlockProc	2.0	1.0	2.0	n/a	n/a	n/a	n/a	n/a	n/a	n/a	n/a	n/a	n/a	n/a	n/a	Run1BlockList	2	n/a	n/a	n/a	n/a	n/a	n/a	n/a	n/a	n/a	n/a	n/a	n/a	n/a	n/a	n/a	n/a	n/a	n/a	n/a	n/a	n/a	n/a	n/a	n/a	n/a	n/a	n/a	n/a	n/a	n/a	n/a	n/a	n/a	n/a	n/a	n/a	n/a	n/a	n/a	n/a	n/a	n/a	n/a	n/a	n/a	n/a	n/a	n/a	n/a	n/a	n/a	n/a	n/a	n/a	n/a	n/a	n/a	n/a	n/a	n/a	n/a	n/a	n/a	n/a	n/a	n/a	n/a	n/a	n/a	n/a	n/a	n/a	n/a	n/a	n/a	2.0	1.0	2.0	n/a	n/a	n/a	n/a	n/a	n/a	n/a	n/a	n/a	n/a	n/a	n/a	F1_02.jpg	500	0	826479	-1	826479	0	TrialProc1	F1OfficeSmallBlockList	2500	0	823980	0	823980	0	823980	2499	c	892	824872	32.989999999999995
36	2.5	000_R01_VB_allProc	4	1	"<?xml version=""1.0""?>\n<Clock xmlns:dt=""urn:schemas-microsoft-com:datatypes""><Description dt:dt=""string"">E-Prime Primary Realtime Clock</Description><StartTime><Timestamp dt:dt=""int"">0</Timestamp><DateUtc dt:dt=""string"">2018-06-14T23:27:22Z</DateUtc></StartTime><FrequencyChanges><FrequencyChange><Frequency dt:dt=""r8"">3020419</Frequency><Timestamp dt:dt=""r8"">82288893538</Timestamp><Current dt:dt=""r8"">0</Current><DateUtc dt:dt=""string"">2018-06-14T23:27:22Z</DateUtc></FrequencyChange></FrequencyChanges></Clock>\n"	000_R01_VB_allProc-004-1	60.024	1.0.0.182	1	685109619	Professional	2.0.10.356	2.0.10.356	06-14-2018	n/a	19:27:22	2.0.10.252	5	0	0	790992	23	790992	3998	-999999	961485	-3	950932	0	Run1Proc	5	1	5	RunList	2	OfficeSmall	8000.0	0.0	838974.0	0.0	838974.0	0.0	838974.0	0.0	F1OfficeSmallBlockProc	2.0	1.0	2.0	n/a	n/a	n/a	n/a	n/a	n/a	n/a	n/a	n/a	n/a	n/a	n/a	Run1BlockList	3	n/a	n/a	n/a	n/a	n/a	n/a	n/a	n/a	n/a	n/a	n/a	n/a	n/a	n/a	n/a	n/a	n/a	n/a	n/a	n/a	n/a	n/a	n/a	n/a	n/a	n/a	n/a	n/a	n/a	n/a	n/a	n/a	n/a	n/a	n/a	n/a	n/a	n/a	n/a	n/a	n/a	n/a	n/a	n/a	n/a	n/a	n/a	n/a	n/a	n/a	n/a	n/a	n/a	n/a	n/a	n/a	n/a	n/a	n/a	n/a	n/a	n/a	n/a	n/a	n/a	n/a	n/a	n/a	n/a	n/a	n/a	n/a	n/a	n/a	n/a	3.0	1.0	3.0	n/a	n/a	n/a	n/a	n/a	n/a	n/a	n/a	n/a	n/a	n/a	n/a	F1_03.jpg	500	1	829478	-1	829477	0	TrialProc1	F1OfficeSmallBlockList	2500	0	826978	0	826978	-1	826978	2499	c	1062	828040	35.988
39	2.5	000_R01_VB_allProc	4	1	"<?xml version=""1.0""?>\n<Clock xmlns:dt=""urn:schemas-microsoft-com:datatypes""><Description dt:dt=""string"">E-Prime Primary Realtime Clock</Description><StartTime><Timestamp dt:dt=""int"">0</Timestamp><DateUtc dt:dt=""string"">2018-06-14T23:27:22Z</DateUtc></StartTime><FrequencyChanges><FrequencyChange><Frequency dt:dt=""r8"">3020419</Frequency><Timestamp dt:dt=""r8"">82288893538</Timestamp><Current dt:dt=""r8"">0</Current><DateUtc dt:dt=""string"">2018-06-14T23:27:22Z</DateUtc></FrequencyChange></FrequencyChanges></Clock>\n"	000_R01_VB_allProc-004-1	60.024	1.0.0.182	1	685109619	Professional	2.0.10.356	2.0.10.356	06-14-2018	n/a	19:27:22	2.0.10.252	5	0	0	790992	23	790992	3998	-999999	961485	-3	950932	0	Run1Proc	5	1	5	RunList	2	OfficeSmall	8000.0	0.0	838974.0	0.0	838974.0	0.0	838974.0	0.0	F1OfficeSmallBlockProc	2.0	1.0	2.0	n/a	n/a	n/a	n/a	n/a	n/a	n/a	n/a	n/a	n/a	n/a	n/a	Run1BlockList	4	n/a	n/a	n/a	n/a	n/a	n/a	n/a	n/a	n/a	n/a	n/a	n/a	n/a	n/a	n/a	n/a	n/a	n/a	n/a	n/a	n/a	n/a	n/a	n/a	n/a	n/a	n/a	n/a	n/a	n/a	n/a	n/a	n/a	n/a	n/a	n/a	n/a	n/a	n/a	n/a	n/a	n/a	n/a	n/a	n/a	n/a	n/a	n/a	n/a	n/a	n/a	n/a	n/a	n/a	n/a	n/a	n/a	n/a	n/a	n/a	n/a	n/a	n/a	n/a	n/a	n/a	n/a	n/a	n/a	n/a	n/a	n/a	n/a	n/a	n/a	4.0	1.0	4.0	n/a	n/a	n/a	n/a	n/a	n/a	n/a	n/a	n/a	n/a	n/a	n/a	F1_04.jpg	500	0	832476	-1	832476	0	TrialProc1	F1OfficeSmallBlockList	2500	0	829977	0	829977	0	829977	2499	c	687	830664	38.987
42	2.5	000_R01_VB_allProc	4	1	"<?xml version=""1.0""?>\n<Clock xmlns:dt=""urn:schemas-microsoft-com:datatypes""><Description dt:dt=""string"">E-Prime Primary Realtime Clock</Description><StartTime><Timestamp dt:dt=""int"">0</Timestamp><DateUtc dt:dt=""string"">2018-06-14T23:27:22Z</DateUtc></StartTime><FrequencyChanges><FrequencyChange><Frequency dt:dt=""r8"">3020419</Frequency><Timestamp dt:dt=""r8"">82288893538</Timestamp><Current dt:dt=""r8"">0</Current><DateUtc dt:dt=""string"">2018-06-14T23:27:22Z</DateUtc></FrequencyChange></FrequencyChanges></Clock>\n"	000_R01_VB_allProc-004-1	60.024	1.0.0.182	1	685109619	Professional	2.0.10.356	2.0.10.356	06-14-2018	n/a	19:27:22	2.0.10.252	5	0	0	790992	23	790992	3998	-999999	961485	-3	950932	0	Run1Proc	5	1	5	RunList	2	OfficeSmall	8000.0	0.0	838974.0	0.0	838974.0	0.0	838974.0	0.0	F1OfficeSmallBlockProc	2.0	1.0	2.0	n/a	n/a	n/a	n/a	n/a	n/a	n/a	n/a	n/a	n/a	n/a	n/a	Run1BlockList	5	n/a	n/a	n/a	n/a	n/a	n/a	n/a	n/a	n/a	n/a	n/a	n/a	n/a	n/a	n/a	n/a	n/a	n/a	n/a	n/a	n/a	n/a	n/a	n/a	n/a	n/a	n/a	n/a	n/a	n/a	n/a	n/a	n/a	n/a	n/a	n/a	n/a	n/a	n/a	n/a	n/a	n/a	n/a	n/a	n/a	n/a	n/a	n/a	n/a	n/a	n/a	n/a	n/a	n/a	n/a	n/a	n/a	n/a	n/a	n/a	n/a	n/a	n/a	n/a	n/a	n/a	n/a	n/a	n/a	n/a	n/a	n/a	n/a	n/a	n/a	5.0	1.0	5.0	n/a	n/a	n/a	n/a	n/a	n/a	n/a	n/a	n/a	n/a	n/a	n/a	F1_05.jpg	500	0	835475	-1	835475	0	TrialProc1	F1OfficeSmallBlockList	2500	0	832976	0	832976	0	832976	2499	c	408	833384	41.986
45	2.5	000_R01_VB_allProc	4	1	"<?xml version=""1.0""?>\n<Clock xmlns:dt=""urn:schemas-microsoft-com:datatypes""><Description dt:dt=""string"">E-Prime Primary Realtime Clock</Description><StartTime><Timestamp dt:dt=""int"">0</Timestamp><DateUtc dt:dt=""string"">2018-06-14T23:27:22Z</DateUtc></StartTime><FrequencyChanges><FrequencyChange><Frequency dt:dt=""r8"">3020419</Frequency><Timestamp dt:dt=""r8"">82288893538</Timestamp><Current dt:dt=""r8"">0</Current><DateUtc dt:dt=""string"">2018-06-14T23:27:22Z</DateUtc></FrequencyChange></FrequencyChanges></Clock>\n"	000_R01_VB_allProc-004-1	60.024	1.0.0.182	1	685109619	Professional	2.0.10.356	2.0.10.356	06-14-2018	n/a	19:27:22	2.0.10.252	5	0	0	790992	23	790992	3998	-999999	961485	-3	950932	0	Run1Proc	5	1	5	RunList	2	OfficeSmall	8000.0	0.0	838974.0	0.0	838974.0	0.0	838974.0	0.0	F1OfficeSmallBlockProc	2.0	1.0	2.0	n/a	n/a	n/a	n/a	n/a	n/a	n/a	n/a	n/a	n/a	n/a	n/a	Run1BlockList	6	n/a	n/a	n/a	n/a	n/a	n/a	n/a	n/a	n/a	n/a	n/a	n/a	n/a	n/a	n/a	n/a	n/a	n/a	n/a	n/a	n/a	n/a	n/a	n/a	n/a	n/a	n/a	n/a	n/a	n/a	n/a	n/a	n/a	n/a	n/a	n/a	n/a	n/a	n/a	n/a	n/a	n/a	n/a	n/a	n/a	n/a	n/a	n/a	n/a	n/a	n/a	n/a	n/a	n/a	n/a	n/a	n/a	n/a	n/a	n/a	n/a	n/a	n/a	n/a	n/a	n/a	n/a	n/a	n/a	n/a	n/a	n/a	n/a	n/a	n/a	6.0	1.0	6.0	n/a	n/a	n/a	n/a	n/a	n/a	n/a	n/a	n/a	n/a	n/a	n/a	F1_06.jpg	500	0	838474	-1	838474	0	TrialProc1	F1OfficeSmallBlockList	2500	0	835975	0	835975	0	835975	2499	c	497	836472	44.985
56	2.5	000_R01_VB_allProc	4	1	"<?xml version=""1.0""?>\n<Clock xmlns:dt=""urn:schemas-microsoft-com:datatypes""><Description dt:dt=""string"">E-Prime Primary Realtime Clock</Description><StartTime><Timestamp dt:dt=""int"">0</Timestamp><DateUtc dt:dt=""string"">2018-06-14T23:27:22Z</DateUtc></StartTime><FrequencyChanges><FrequencyChange><Frequency dt:dt=""r8"">3020419</Frequency><Timestamp dt:dt=""r8"">82288893538</Timestamp><Current dt:dt=""r8"">0</Current><DateUtc dt:dt=""string"">2018-06-14T23:27:22Z</DateUtc></FrequencyChange></FrequencyChanges></Clock>\n"	000_R01_VB_allProc-004-1	60.024	1.0.0.182	1	685109619	Professional	2.0.10.356	2.0.10.356	06-14-2018	n/a	19:27:22	2.0.10.252	5	0	0	790992	23	790992	3998	-999999	961485	-3	950932	0	Run1Proc	5	1	5	RunList	3	LowLargeED	8000.0	0.0	864964.0	0.0	864964.0	0.0	864964.0	0.0	C1LowLargeEDBlockProc	3.0	1.0	3.0	n/a	n/a	n/a	n/a	n/a	n/a	n/a	n/a	n/a	n/a	n/a	n/a	Run1BlockList	1	n/a	n/a	n/a	n/a	n/a	n/a	n/a	n/a	n/a	n/a	n/a	n/a	n/a	n/a	n/a	n/a	n/a	n/a	n/a	n/a	n/a	n/a	n/a	n/a	n/a	n/a	n/a	n/a	n/a	n/a	1.0	1.0	1.0	n/a	n/a	n/a	n/a	n/a	n/a	n/a	n/a	n/a	n/a	n/a	n/a	n/a	n/a	n/a	n/a	n/a	n/a	n/a	n/a	n/a	n/a	n/a	n/a	n/a	n/a	n/a	n/a	n/a	n/a	n/a	n/a	n/a	n/a	n/a	n/a	n/a	n/a	n/a	n/a	n/a	n/a	n/a	n/a	n/a	n/a	n/a	n/a	n/a	n/a	n/a	n/a	n/a	n/a	n/a	n/a	n/a	C1_01.jpg	500	0	849470	-1	849470	0	TrialProc1	C1LowLargeEDBlockList	2500	0	846971	0	846971	-3	846971	2499	d	1413	848384	55.981
59	2.5	000_R01_VB_allProc	4	1	"<?xml version=""1.0""?>\n<Clock xmlns:dt=""urn:schemas-microsoft-com:datatypes""><Description dt:dt=""string"">E-Prime Primary Realtime Clock</Description><StartTime><Timestamp dt:dt=""int"">0</Timestamp><DateUtc dt:dt=""string"">2018-06-14T23:27:22Z</DateUtc></StartTime><FrequencyChanges><FrequencyChange><Frequency dt:dt=""r8"">3020419</Frequency><Timestamp dt:dt=""r8"">82288893538</Timestamp><Current dt:dt=""r8"">0</Current><DateUtc dt:dt=""string"">2018-06-14T23:27:22Z</DateUtc></FrequencyChange></FrequencyChanges></Clock>\n"	000_R01_VB_allProc-004-1	60.024	1.0.0.182	1	685109619	Professional	2.0.10.356	2.0.10.356	06-14-2018	n/a	19:27:22	2.0.10.252	5	0	0	790992	23	790992	3998	-999999	961485	-3	950932	0	Run1Proc	5	1	5	RunList	3	LowLargeED	8000.0	0.0	864964.0	0.0	864964.0	0.0	864964.0	0.0	C1LowLargeEDBlockProc	3.0	1.0	3.0	n/a	n/a	n/a	n/a	n/a	n/a	n/a	n/a	n/a	n/a	n/a	n/a	Run1BlockList	2	n/a	n/a	n/a	n/a	n/a	n/a	n/a	n/a	n/a	n/a	n/a	n/a	n/a	n/a	n/a	n/a	n/a	n/a	n/a	n/a	n/a	n/a	n/a	n/a	n/a	n/a	n/a	n/a	n/a	n/a	2.0	1.0	2.0	n/a	n/a	n/a	n/a	n/a	n/a	n/a	n/a	n/a	n/a	n/a	n/a	n/a	n/a	n/a	n/a	n/a	n/a	n/a	n/a	n/a	n/a	n/a	n/a	n/a	n/a	n/a	n/a	n/a	n/a	n/a	n/a	n/a	n/a	n/a	n/a	n/a	n/a	n/a	n/a	n/a	n/a	n/a	n/a	n/a	n/a	n/a	n/a	n/a	n/a	n/a	n/a	n/a	n/a	n/a	n/a	n/a	C1_02.jpg	500	0	852469	-1	852469	0	TrialProc1	C1LowLargeEDBlockList	2500	0	849970	0	849970	0	849970	2499	d	1382	851352	58.98
62	2.5	000_R01_VB_allProc	4	1	"<?xml version=""1.0""?>\n<Clock xmlns:dt=""urn:schemas-microsoft-com:datatypes""><Description dt:dt=""string"">E-Prime Primary Realtime Clock</Description><StartTime><Timestamp dt:dt=""int"">0</Timestamp><DateUtc dt:dt=""string"">2018-06-14T23:27:22Z</DateUtc></StartTime><FrequencyChanges><FrequencyChange><Frequency dt:dt=""r8"">3020419</Frequency><Timestamp dt:dt=""r8"">82288893538</Timestamp><Current dt:dt=""r8"">0</Current><DateUtc dt:dt=""string"">2018-06-14T23:27:22Z</DateUtc></FrequencyChange></FrequencyChanges></Clock>\n"	000_R01_VB_allProc-004-1	60.024	1.0.0.182	1	685109619	Professional	2.0.10.356	2.0.10.356	06-14-2018	n/a	19:27:22	2.0.10.252	5	0	0	790992	23	790992	3998	-999999	961485	-3	950932	0	Run1Proc	5	1	5	RunList	3	LowLargeED	8000.0	0.0	864964.0	0.0	864964.0	0.0	864964.0	0.0	C1LowLargeEDBlockProc	3.0	1.0	3.0	n/a	n/a	n/a	n/a	n/a	n/a	n/a	n/a	n/a	n/a	n/a	n/a	Run1BlockList	3	n/a	n/a	n/a	n/a	n/a	n/a	n/a	n/a	n/a	n/a	n/a	n/a	n/a	n/a	n/a	n/a	n/a	n/a	n/a	n/a	n/a	n/a	n/a	n/a	n/a	n/a	n/a	n/a	n/a	n/a	3.0	1.0	3.0	n/a	n/a	n/a	n/a	n/a	n/a	n/a	n/a	n/a	n/a	n/a	n/a	n/a	n/a	n/a	n/a	n/a	n/a	n/a	n/a	n/a	n/a	n/a	n/a	n/a	n/a	n/a	n/a	n/a	n/a	n/a	n/a	n/a	n/a	n/a	n/a	n/a	n/a	n/a	n/a	n/a	n/a	n/a	n/a	n/a	n/a	n/a	n/a	n/a	n/a	n/a	n/a	n/a	n/a	n/a	n/a	n/a	C1_03.jpg	500	0	855468	-1	855468	0	TrialProc1	C1LowLargeEDBlockList	2500	0	852969	0	852969	0	852969	2499	d	591	853560	61.979
65	2.5	000_R01_VB_allProc	4	1	"<?xml version=""1.0""?>\n<Clock xmlns:dt=""urn:schemas-microsoft-com:datatypes""><Description dt:dt=""string"">E-Prime Primary Realtime Clock</Description><StartTime><Timestamp dt:dt=""int"">0</Timestamp><DateUtc dt:dt=""string"">2018-06-14T23:27:22Z</DateUtc></StartTime><FrequencyChanges><FrequencyChange><Frequency dt:dt=""r8"">3020419</Frequency><Timestamp dt:dt=""r8"">82288893538</Timestamp><Current dt:dt=""r8"">0</Current><DateUtc dt:dt=""string"">2018-06-14T23:27:22Z</DateUtc></FrequencyChange></FrequencyChanges></Clock>\n"	000_R01_VB_allProc-004-1	60.024	1.0.0.182	1	685109619	Professional	2.0.10.356	2.0.10.356	06-14-2018	n/a	19:27:22	2.0.10.252	5	0	0	790992	23	790992	3998	-999999	961485	-3	950932	0	Run1Proc	5	1	5	RunList	3	LowLargeED	8000.0	0.0	864964.0	0.0	864964.0	0.0	864964.0	0.0	C1LowLargeEDBlockProc	3.0	1.0	3.0	n/a	n/a	n/a	n/a	n/a	n/a	n/a	n/a	n/a	n/a	n/a	n/a	Run1BlockList	4	n/a	n/a	n/a	n/a	n/a	n/a	n/a	n/a	n/a	n/a	n/a	n/a	n/a	n/a	n/a	n/a	n/a	n/a	n/a	n/a	n/a	n/a	n/a	n/a	n/a	n/a	n/a	n/a	n/a	n/a	4.0	1.0	4.0	n/a	n/a	n/a	n/a	n/a	n/a	n/a	n/a	n/a	n/a	n/a	n/a	n/a	n/a	n/a	n/a	n/a	n/a	n/a	n/a	n/a	n/a	n/a	n/a	n/a	n/a	n/a	n/a	n/a	n/a	n/a	n/a	n/a	n/a	n/a	n/a	n/a	n/a	n/a	n/a	n/a	n/a	n/a	n/a	n/a	n/a	n/a	n/a	n/a	n/a	n/a	n/a	n/a	n/a	n/a	n/a	n/a	C1_04.jpg	500	0	858467	-1	858467	0	TrialProc1	C1LowLargeEDBlockList	2500	0	855968	0	855968	0	855968	2499	d	536	856504	64.97800000000001
68	2.5	000_R01_VB_allProc	4	1	"<?xml version=""1.0""?>\n<Clock xmlns:dt=""urn:schemas-microsoft-com:datatypes""><Description dt:dt=""string"">E-Prime Primary Realtime Clock</Description><StartTime><Timestamp dt:dt=""int"">0</Timestamp><DateUtc dt:dt=""string"">2018-06-14T23:27:22Z</DateUtc></StartTime><FrequencyChanges><FrequencyChange><Frequency dt:dt=""r8"">3020419</Frequency><Timestamp dt:dt=""r8"">82288893538</Timestamp><Current dt:dt=""r8"">0</Current><DateUtc dt:dt=""string"">2018-06-14T23:27:22Z</DateUtc></FrequencyChange></FrequencyChanges></Clock>\n"	000_R01_VB_allProc-004-1	60.024	1.0.0.182	1	685109619	Professional	2.0.10.356	2.0.10.356	06-14-2018	n/a	19:27:22	2.0.10.252	5	0	0	790992	23	790992	3998	-999999	961485	-3	950932	0	Run1Proc	5	1	5	RunList	3	LowLargeED	8000.0	0.0	864964.0	0.0	864964.0	0.0	864964.0	0.0	C1LowLargeEDBlockProc	3.0	1.0	3.0	n/a	n/a	n/a	n/a	n/a	n/a	n/a	n/a	n/a	n/a	n/a	n/a	Run1BlockList	5	n/a	n/a	n/a	n/a	n/a	n/a	n/a	n/a	n/a	n/a	n/a	n/a	n/a	n/a	n/a	n/a	n/a	n/a	n/a	n/a	n/a	n/a	n/a	n/a	n/a	n/a	n/a	n/a	n/a	n/a	5.0	1.0	5.0	n/a	n/a	n/a	n/a	n/a	n/a	n/a	n/a	n/a	n/a	n/a	n/a	n/a	n/a	n/a	n/a	n/a	n/a	n/a	n/a	n/a	n/a	n/a	n/a	n/a	n/a	n/a	n/a	n/a	n/a	n/a	n/a	n/a	n/a	n/a	n/a	n/a	n/a	n/a	n/a	n/a	n/a	n/a	n/a	n/a	n/a	n/a	n/a	n/a	n/a	n/a	n/a	n/a	n/a	n/a	n/a	n/a	C1_05.jpg	500	0	861466	0	861466	0	TrialProc1	C1LowLargeEDBlockList	2500	1	858967	1	858967	-1	858966	2500	d	490	859456	67.976
71	2.5	000_R01_VB_allProc	4	1	"<?xml version=""1.0""?>\n<Clock xmlns:dt=""urn:schemas-microsoft-com:datatypes""><Description dt:dt=""string"">E-Prime Primary Realtime Clock</Description><StartTime><Timestamp dt:dt=""int"">0</Timestamp><DateUtc dt:dt=""string"">2018-06-14T23:27:22Z</DateUtc></StartTime><FrequencyChanges><FrequencyChange><Frequency dt:dt=""r8"">3020419</Frequency><Timestamp dt:dt=""r8"">82288893538</Timestamp><Current dt:dt=""r8"">0</Current><DateUtc dt:dt=""string"">2018-06-14T23:27:22Z</DateUtc></FrequencyChange></FrequencyChanges></Clock>\n"	000_R01_VB_allProc-004-1	60.024	1.0.0.182	1	685109619	Professional	2.0.10.356	2.0.10.356	06-14-2018	n/a	19:27:22	2.0.10.252	5	0	0	790992	23	790992	3998	-999999	961485	-3	950932	0	Run1Proc	5	1	5	RunList	3	LowLargeED	8000.0	0.0	864964.0	0.0	864964.0	0.0	864964.0	0.0	C1LowLargeEDBlockProc	3.0	1.0	3.0	n/a	n/a	n/a	n/a	n/a	n/a	n/a	n/a	n/a	n/a	n/a	n/a	Run1BlockList	6	n/a	n/a	n/a	n/a	n/a	n/a	n/a	n/a	n/a	n/a	n/a	n/a	n/a	n/a	n/a	n/a	n/a	n/a	n/a	n/a	n/a	n/a	n/a	n/a	n/a	n/a	n/a	n/a	n/a	n/a	6.0	1.0	6.0	n/a	n/a	n/a	n/a	n/a	n/a	n/a	n/a	n/a	n/a	n/a	n/a	n/a	n/a	n/a	n/a	n/a	n/a	n/a	n/a	n/a	n/a	n/a	n/a	n/a	n/a	n/a	n/a	n/a	n/a	n/a	n/a	n/a	n/a	n/a	n/a	n/a	n/a	n/a	n/a	n/a	n/a	n/a	n/a	n/a	n/a	n/a	n/a	n/a	n/a	n/a	n/a	n/a	n/a	n/a	n/a	n/a	C1_06.jpg	500	0	864464	-1	864464	0	TrialProc1	C1LowLargeEDBlockList	2500	0	861965	0	861965	-1	861965	2499	d	435	862400	70.975
82	2.5	000_R01_VB_allProc	4	1	"<?xml version=""1.0""?>\n<Clock xmlns:dt=""urn:schemas-microsoft-com:datatypes""><Description dt:dt=""string"">E-Prime Primary Realtime Clock</Description><StartTime><Timestamp dt:dt=""int"">0</Timestamp><DateUtc dt:dt=""string"">2018-06-14T23:27:22Z</DateUtc></StartTime><FrequencyChanges><FrequencyChange><Frequency dt:dt=""r8"">3020419</Frequency><Timestamp dt:dt=""r8"">82288893538</Timestamp><Current dt:dt=""r8"">0</Current><DateUtc dt:dt=""string"">2018-06-14T23:27:22Z</DateUtc></FrequencyChange></FrequencyChanges></Clock>\n"	000_R01_VB_allProc-004-1	60.024	1.0.0.182	1	685109619	Professional	2.0.10.356	2.0.10.356	06-14-2018	n/a	19:27:22	2.0.10.252	5	0	0	790992	23	790992	3998	-999999	961485	-3	950932	0	Run1Proc	5	1	5	RunList	4	LowSmallED	8000.0	0.0	890954.0	0.0	890954.0	-1.0	890954.0	0.0	D1LowSmallEDBlockProc	4.0	1.0	4.0	n/a	n/a	n/a	n/a	n/a	n/a	n/a	n/a	n/a	n/a	n/a	n/a	Run1BlockList	1	n/a	n/a	n/a	n/a	n/a	n/a	n/a	n/a	n/a	n/a	n/a	n/a	n/a	n/a	n/a	n/a	n/a	n/a	n/a	n/a	n/a	n/a	n/a	n/a	n/a	n/a	n/a	n/a	n/a	n/a	n/a	n/a	n/a	n/a	n/a	n/a	n/a	n/a	n/a	n/a	n/a	n/a	n/a	n/a	n/a	1.0	1.0	1.0	n/a	n/a	n/a	n/a	n/a	n/a	n/a	n/a	n/a	n/a	n/a	n/a	n/a	n/a	n/a	n/a	n/a	n/a	n/a	n/a	n/a	n/a	n/a	n/a	n/a	n/a	n/a	n/a	n/a	n/a	n/a	n/a	n/a	n/a	n/a	n/a	n/a	n/a	n/a	n/a	n/a	n/a	D1_01.jpg	500	0	875460	-1	875460	0	TrialProc1	D1LowSmallEDBlockList	2500	0	872961	0	872961	-3	872961	2499	d	1638	874599	81.971
85	2.5	000_R01_VB_allProc	4	1	"<?xml version=""1.0""?>\n<Clock xmlns:dt=""urn:schemas-microsoft-com:datatypes""><Description dt:dt=""string"">E-Prime Primary Realtime Clock</Description><StartTime><Timestamp dt:dt=""int"">0</Timestamp><DateUtc dt:dt=""string"">2018-06-14T23:27:22Z</DateUtc></StartTime><FrequencyChanges><FrequencyChange><Frequency dt:dt=""r8"">3020419</Frequency><Timestamp dt:dt=""r8"">82288893538</Timestamp><Current dt:dt=""r8"">0</Current><DateUtc dt:dt=""string"">2018-06-14T23:27:22Z</DateUtc></FrequencyChange></FrequencyChanges></Clock>\n"	000_R01_VB_allProc-004-1	60.024	1.0.0.182	1	685109619	Professional	2.0.10.356	2.0.10.356	06-14-2018	n/a	19:27:22	2.0.10.252	5	0	0	790992	23	790992	3998	-999999	961485	-3	950932	0	Run1Proc	5	1	5	RunList	4	LowSmallED	8000.0	0.0	890954.0	0.0	890954.0	-1.0	890954.0	0.0	D1LowSmallEDBlockProc	4.0	1.0	4.0	n/a	n/a	n/a	n/a	n/a	n/a	n/a	n/a	n/a	n/a	n/a	n/a	Run1BlockList	2	n/a	n/a	n/a	n/a	n/a	n/a	n/a	n/a	n/a	n/a	n/a	n/a	n/a	n/a	n/a	n/a	n/a	n/a	n/a	n/a	n/a	n/a	n/a	n/a	n/a	n/a	n/a	n/a	n/a	n/a	n/a	n/a	n/a	n/a	n/a	n/a	n/a	n/a	n/a	n/a	n/a	n/a	n/a	n/a	n/a	2.0	1.0	2.0	n/a	n/a	n/a	n/a	n/a	n/a	n/a	n/a	n/a	n/a	n/a	n/a	n/a	n/a	n/a	n/a	n/a	n/a	n/a	n/a	n/a	n/a	n/a	n/a	n/a	n/a	n/a	n/a	n/a	n/a	n/a	n/a	n/a	n/a	n/a	n/a	n/a	n/a	n/a	n/a	n/a	n/a	D1_02.jpg	500	0	878459	-1	878459	0	TrialProc1	D1LowSmallEDBlockList	2500	0	875960	0	875960	0	875960	2499	d	1543	877503	84.97
88	2.5	000_R01_VB_allProc	4	1	"<?xml version=""1.0""?>\n<Clock xmlns:dt=""urn:schemas-microsoft-com:datatypes""><Description dt:dt=""string"">E-Prime Primary Realtime Clock</Description><StartTime><Timestamp dt:dt=""int"">0</Timestamp><DateUtc dt:dt=""string"">2018-06-14T23:27:22Z</DateUtc></StartTime><FrequencyChanges><FrequencyChange><Frequency dt:dt=""r8"">3020419</Frequency><Timestamp dt:dt=""r8"">82288893538</Timestamp><Current dt:dt=""r8"">0</Current><DateUtc dt:dt=""string"">2018-06-14T23:27:22Z</DateUtc></FrequencyChange></FrequencyChanges></Clock>\n"	000_R01_VB_allProc-004-1	60.024	1.0.0.182	1	685109619	Professional	2.0.10.356	2.0.10.356	06-14-2018	n/a	19:27:22	2.0.10.252	5	0	0	790992	23	790992	3998	-999999	961485	-3	950932	0	Run1Proc	5	1	5	RunList	4	LowSmallED	8000.0	0.0	890954.0	0.0	890954.0	-1.0	890954.0	0.0	D1LowSmallEDBlockProc	4.0	1.0	4.0	n/a	n/a	n/a	n/a	n/a	n/a	n/a	n/a	n/a	n/a	n/a	n/a	Run1BlockList	3	n/a	n/a	n/a	n/a	n/a	n/a	n/a	n/a	n/a	n/a	n/a	n/a	n/a	n/a	n/a	n/a	n/a	n/a	n/a	n/a	n/a	n/a	n/a	n/a	n/a	n/a	n/a	n/a	n/a	n/a	n/a	n/a	n/a	n/a	n/a	n/a	n/a	n/a	n/a	n/a	n/a	n/a	n/a	n/a	n/a	3.0	1.0	3.0	n/a	n/a	n/a	n/a	n/a	n/a	n/a	n/a	n/a	n/a	n/a	n/a	n/a	n/a	n/a	n/a	n/a	n/a	n/a	n/a	n/a	n/a	n/a	n/a	n/a	n/a	n/a	n/a	n/a	n/a	n/a	n/a	n/a	n/a	n/a	n/a	n/a	n/a	n/a	n/a	n/a	n/a	D1_03.jpg	500	0	881458	-1	881458	0	TrialProc1	D1LowSmallEDBlockList	2500	0	878959	0	878959	0	878959	2499	d	928	879887	87.969
91	2.5	000_R01_VB_allProc	4	1	"<?xml version=""1.0""?>\n<Clock xmlns:dt=""urn:schemas-microsoft-com:datatypes""><Description dt:dt=""string"">E-Prime Primary Realtime Clock</Description><StartTime><Timestamp dt:dt=""int"">0</Timestamp><DateUtc dt:dt=""string"">2018-06-14T23:27:22Z</DateUtc></StartTime><FrequencyChanges><FrequencyChange><Frequency dt:dt=""r8"">3020419</Frequency><Timestamp dt:dt=""r8"">82288893538</Timestamp><Current dt:dt=""r8"">0</Current><DateUtc dt:dt=""string"">2018-06-14T23:27:22Z</DateUtc></FrequencyChange></FrequencyChanges></Clock>\n"	000_R01_VB_allProc-004-1	60.024	1.0.0.182	1	685109619	Professional	2.0.10.356	2.0.10.356	06-14-2018	n/a	19:27:22	2.0.10.252	5	0	0	790992	23	790992	3998	-999999	961485	-3	950932	0	Run1Proc	5	1	5	RunList	4	LowSmallED	8000.0	0.0	890954.0	0.0	890954.0	-1.0	890954.0	0.0	D1LowSmallEDBlockProc	4.0	1.0	4.0	n/a	n/a	n/a	n/a	n/a	n/a	n/a	n/a	n/a	n/a	n/a	n/a	Run1BlockList	4	n/a	n/a	n/a	n/a	n/a	n/a	n/a	n/a	n/a	n/a	n/a	n/a	n/a	n/a	n/a	n/a	n/a	n/a	n/a	n/a	n/a	n/a	n/a	n/a	n/a	n/a	n/a	n/a	n/a	n/a	n/a	n/a	n/a	n/a	n/a	n/a	n/a	n/a	n/a	n/a	n/a	n/a	n/a	n/a	n/a	4.0	1.0	4.0	n/a	n/a	n/a	n/a	n/a	n/a	n/a	n/a	n/a	n/a	n/a	n/a	n/a	n/a	n/a	n/a	n/a	n/a	n/a	n/a	n/a	n/a	n/a	n/a	n/a	n/a	n/a	n/a	n/a	n/a	n/a	n/a	n/a	n/a	n/a	n/a	n/a	n/a	n/a	n/a	n/a	n/a	D1_04.jpg	500	0	884457	-1	884457	0	TrialProc1	D1LowSmallEDBlockList	2500	0	881958	0	881958	0	881958	2499	d	625	882583	90.968
94	2.5	000_R01_VB_allProc	4	1	"<?xml version=""1.0""?>\n<Clock xmlns:dt=""urn:schemas-microsoft-com:datatypes""><Description dt:dt=""string"">E-Prime Primary Realtime Clock</Description><StartTime><Timestamp dt:dt=""int"">0</Timestamp><DateUtc dt:dt=""string"">2018-06-14T23:27:22Z</DateUtc></StartTime><FrequencyChanges><FrequencyChange><Frequency dt:dt=""r8"">3020419</Frequency><Timestamp dt:dt=""r8"">82288893538</Timestamp><Current dt:dt=""r8"">0</Current><DateUtc dt:dt=""string"">2018-06-14T23:27:22Z</DateUtc></FrequencyChange></FrequencyChanges></Clock>\n"	000_R01_VB_allProc-004-1	60.024	1.0.0.182	1	685109619	Professional	2.0.10.356	2.0.10.356	06-14-2018	n/a	19:27:22	2.0.10.252	5	0	0	790992	23	790992	3998	-999999	961485	-3	950932	0	Run1Proc	5	1	5	RunList	4	LowSmallED	8000.0	0.0	890954.0	0.0	890954.0	-1.0	890954.0	0.0	D1LowSmallEDBlockProc	4.0	1.0	4.0	n/a	n/a	n/a	n/a	n/a	n/a	n/a	n/a	n/a	n/a	n/a	n/a	Run1BlockList	5	n/a	n/a	n/a	n/a	n/a	n/a	n/a	n/a	n/a	n/a	n/a	n/a	n/a	n/a	n/a	n/a	n/a	n/a	n/a	n/a	n/a	n/a	n/a	n/a	n/a	n/a	n/a	n/a	n/a	n/a	n/a	n/a	n/a	n/a	n/a	n/a	n/a	n/a	n/a	n/a	n/a	n/a	n/a	n/a	n/a	5.0	1.0	5.0	n/a	n/a	n/a	n/a	n/a	n/a	n/a	n/a	n/a	n/a	n/a	n/a	n/a	n/a	n/a	n/a	n/a	n/a	n/a	n/a	n/a	n/a	n/a	n/a	n/a	n/a	n/a	n/a	n/a	n/a	n/a	n/a	n/a	n/a	n/a	n/a	n/a	n/a	n/a	n/a	n/a	n/a	D1_05.jpg	500	0	887456	-1	887456	0	TrialProc1	D1LowSmallEDBlockList	2500	0	884957	0	884957	0	884957	2499	d	850	885807	93.967
97	2.5	000_R01_VB_allProc	4	1	"<?xml version=""1.0""?>\n<Clock xmlns:dt=""urn:schemas-microsoft-com:datatypes""><Description dt:dt=""string"">E-Prime Primary Realtime Clock</Description><StartTime><Timestamp dt:dt=""int"">0</Timestamp><DateUtc dt:dt=""string"">2018-06-14T23:27:22Z</DateUtc></StartTime><FrequencyChanges><FrequencyChange><Frequency dt:dt=""r8"">3020419</Frequency><Timestamp dt:dt=""r8"">82288893538</Timestamp><Current dt:dt=""r8"">0</Current><DateUtc dt:dt=""string"">2018-06-14T23:27:22Z</DateUtc></FrequencyChange></FrequencyChanges></Clock>\n"	000_R01_VB_allProc-004-1	60.024	1.0.0.182	1	685109619	Professional	2.0.10.356	2.0.10.356	06-14-2018	n/a	19:27:22	2.0.10.252	5	0	0	790992	23	790992	3998	-999999	961485	-3	950932	0	Run1Proc	5	1	5	RunList	4	LowSmallED	8000.0	0.0	890954.0	0.0	890954.0	-1.0	890954.0	0.0	D1LowSmallEDBlockProc	4.0	1.0	4.0	n/a	n/a	n/a	n/a	n/a	n/a	n/a	n/a	n/a	n/a	n/a	n/a	Run1BlockList	6	n/a	n/a	n/a	n/a	n/a	n/a	n/a	n/a	n/a	n/a	n/a	n/a	n/a	n/a	n/a	n/a	n/a	n/a	n/a	n/a	n/a	n/a	n/a	n/a	n/a	n/a	n/a	n/a	n/a	n/a	n/a	n/a	n/a	n/a	n/a	n/a	n/a	n/a	n/a	n/a	n/a	n/a	n/a	n/a	n/a	6.0	1.0	6.0	n/a	n/a	n/a	n/a	n/a	n/a	n/a	n/a	n/a	n/a	n/a	n/a	n/a	n/a	n/a	n/a	n/a	n/a	n/a	n/a	n/a	n/a	n/a	n/a	n/a	n/a	n/a	n/a	n/a	n/a	n/a	n/a	n/a	n/a	n/a	n/a	n/a	n/a	n/a	n/a	n/a	n/a	D1_06.jpg	500	0	890455	-1	890455	0	TrialProc1	D1LowSmallEDBlockList	2500	0	887956	0	887956	0	887956	2499	d	1499	889455	96.966
108	2.5	000_R01_VB_allProc	4	1	"<?xml version=""1.0""?>\n<Clock xmlns:dt=""urn:schemas-microsoft-com:datatypes""><Description dt:dt=""string"">E-Prime Primary Realtime Clock</Description><StartTime><Timestamp dt:dt=""int"">0</Timestamp><DateUtc dt:dt=""string"">2018-06-14T23:27:22Z</DateUtc></StartTime><FrequencyChanges><FrequencyChange><Frequency dt:dt=""r8"">3020419</Frequency><Timestamp dt:dt=""r8"">82288893538</Timestamp><Current dt:dt=""r8"">0</Current><DateUtc dt:dt=""string"">2018-06-14T23:27:22Z</DateUtc></FrequencyChange></FrequencyChanges></Clock>\n"	000_R01_VB_allProc-004-1	60.024	1.0.0.182	1	685109619	Professional	2.0.10.356	2.0.10.356	06-14-2018	n/a	19:27:22	2.0.10.252	5	0	0	790992	23	790992	3998	-999999	961485	-3	950932	0	Run1Proc	5	1	5	RunList	5	OfficeLarge	8000.0	0.0	916945.0	0.0	916945.0	0.0	916945.0	0.0	E1OfficeLargeBlockProc	5.0	1.0	5.0	n/a	n/a	n/a	n/a	n/a	n/a	n/a	n/a	n/a	n/a	n/a	n/a	Run1BlockList	1	n/a	n/a	n/a	n/a	n/a	n/a	n/a	n/a	n/a	n/a	n/a	n/a	n/a	n/a	n/a	n/a	n/a	n/a	n/a	n/a	n/a	n/a	n/a	n/a	n/a	n/a	n/a	n/a	n/a	n/a	n/a	n/a	n/a	n/a	n/a	n/a	n/a	n/a	n/a	n/a	n/a	n/a	n/a	n/a	n/a	n/a	n/a	n/a	n/a	n/a	n/a	n/a	n/a	n/a	n/a	n/a	n/a	n/a	n/a	n/a	1.0	1.0	1.0	n/a	n/a	n/a	n/a	n/a	n/a	n/a	n/a	n/a	n/a	n/a	n/a	n/a	n/a	n/a	n/a	n/a	n/a	n/a	n/a	n/a	n/a	n/a	n/a	n/a	n/a	n/a	E1_01.jpg	500	1	901451	-1	901450	0	TrialProc1	E1OfficeLargeBlockList	2500	0	898951	0	898951	-3	898951	2499	c	1664	900615	107.961
111	2.5	000_R01_VB_allProc	4	1	"<?xml version=""1.0""?>\n<Clock xmlns:dt=""urn:schemas-microsoft-com:datatypes""><Description dt:dt=""string"">E-Prime Primary Realtime Clock</Description><StartTime><Timestamp dt:dt=""int"">0</Timestamp><DateUtc dt:dt=""string"">2018-06-14T23:27:22Z</DateUtc></StartTime><FrequencyChanges><FrequencyChange><Frequency dt:dt=""r8"">3020419</Frequency><Timestamp dt:dt=""r8"">82288893538</Timestamp><Current dt:dt=""r8"">0</Current><DateUtc dt:dt=""string"">2018-06-14T23:27:22Z</DateUtc></FrequencyChange></FrequencyChanges></Clock>\n"	000_R01_VB_allProc-004-1	60.024	1.0.0.182	1	685109619	Professional	2.0.10.356	2.0.10.356	06-14-2018	n/a	19:27:22	2.0.10.252	5	0	0	790992	23	790992	3998	-999999	961485	-3	950932	0	Run1Proc	5	1	5	RunList	5	OfficeLarge	8000.0	0.0	916945.0	0.0	916945.0	0.0	916945.0	0.0	E1OfficeLargeBlockProc	5.0	1.0	5.0	n/a	n/a	n/a	n/a	n/a	n/a	n/a	n/a	n/a	n/a	n/a	n/a	Run1BlockList	2	n/a	n/a	n/a	n/a	n/a	n/a	n/a	n/a	n/a	n/a	n/a	n/a	n/a	n/a	n/a	n/a	n/a	n/a	n/a	n/a	n/a	n/a	n/a	n/a	n/a	n/a	n/a	n/a	n/a	n/a	n/a	n/a	n/a	n/a	n/a	n/a	n/a	n/a	n/a	n/a	n/a	n/a	n/a	n/a	n/a	n/a	n/a	n/a	n/a	n/a	n/a	n/a	n/a	n/a	n/a	n/a	n/a	n/a	n/a	n/a	2.0	1.0	2.0	n/a	n/a	n/a	n/a	n/a	n/a	n/a	n/a	n/a	n/a	n/a	n/a	n/a	n/a	n/a	n/a	n/a	n/a	n/a	n/a	n/a	n/a	n/a	n/a	n/a	n/a	n/a	E1_02.jpg	500	0	904449	-1	904449	0	TrialProc1	E1OfficeLargeBlockList	2500	0	901950	0	901950	0	901950	2499	c	1145	903095	110.96
114	2.5	000_R01_VB_allProc	4	1	"<?xml version=""1.0""?>\n<Clock xmlns:dt=""urn:schemas-microsoft-com:datatypes""><Description dt:dt=""string"">E-Prime Primary Realtime Clock</Description><StartTime><Timestamp dt:dt=""int"">0</Timestamp><DateUtc dt:dt=""string"">2018-06-14T23:27:22Z</DateUtc></StartTime><FrequencyChanges><FrequencyChange><Frequency dt:dt=""r8"">3020419</Frequency><Timestamp dt:dt=""r8"">82288893538</Timestamp><Current dt:dt=""r8"">0</Current><DateUtc dt:dt=""string"">2018-06-14T23:27:22Z</DateUtc></FrequencyChange></FrequencyChanges></Clock>\n"	000_R01_VB_allProc-004-1	60.024	1.0.0.182	1	685109619	Professional	2.0.10.356	2.0.10.356	06-14-2018	n/a	19:27:22	2.0.10.252	5	0	0	790992	23	790992	3998	-999999	961485	-3	950932	0	Run1Proc	5	1	5	RunList	5	OfficeLarge	8000.0	0.0	916945.0	0.0	916945.0	0.0	916945.0	0.0	E1OfficeLargeBlockProc	5.0	1.0	5.0	n/a	n/a	n/a	n/a	n/a	n/a	n/a	n/a	n/a	n/a	n/a	n/a	Run1BlockList	3	n/a	n/a	n/a	n/a	n/a	n/a	n/a	n/a	n/a	n/a	n/a	n/a	n/a	n/a	n/a	n/a	n/a	n/a	n/a	n/a	n/a	n/a	n/a	n/a	n/a	n/a	n/a	n/a	n/a	n/a	n/a	n/a	n/a	n/a	n/a	n/a	n/a	n/a	n/a	n/a	n/a	n/a	n/a	n/a	n/a	n/a	n/a	n/a	n/a	n/a	n/a	n/a	n/a	n/a	n/a	n/a	n/a	n/a	n/a	n/a	3.0	1.0	3.0	n/a	n/a	n/a	n/a	n/a	n/a	n/a	n/a	n/a	n/a	n/a	n/a	n/a	n/a	n/a	n/a	n/a	n/a	n/a	n/a	n/a	n/a	n/a	n/a	n/a	n/a	n/a	E1_03.jpg	500	0	907448	-1	907448	0	TrialProc1	E1OfficeLargeBlockList	2500	0	904949	0	904949	0	904949	2499	c	890	905839	113.959
117	2.5	000_R01_VB_allProc	4	1	"<?xml version=""1.0""?>\n<Clock xmlns:dt=""urn:schemas-microsoft-com:datatypes""><Description dt:dt=""string"">E-Prime Primary Realtime Clock</Description><StartTime><Timestamp dt:dt=""int"">0</Timestamp><DateUtc dt:dt=""string"">2018-06-14T23:27:22Z</DateUtc></StartTime><FrequencyChanges><FrequencyChange><Frequency dt:dt=""r8"">3020419</Frequency><Timestamp dt:dt=""r8"">82288893538</Timestamp><Current dt:dt=""r8"">0</Current><DateUtc dt:dt=""string"">2018-06-14T23:27:22Z</DateUtc></FrequencyChange></FrequencyChanges></Clock>\n"	000_R01_VB_allProc-004-1	60.024	1.0.0.182	1	685109619	Professional	2.0.10.356	2.0.10.356	06-14-2018	n/a	19:27:22	2.0.10.252	5	0	0	790992	23	790992	3998	-999999	961485	-3	950932	0	Run1Proc	5	1	5	RunList	5	OfficeLarge	8000.0	0.0	916945.0	0.0	916945.0	0.0	916945.0	0.0	E1OfficeLargeBlockProc	5.0	1.0	5.0	n/a	n/a	n/a	n/a	n/a	n/a	n/a	n/a	n/a	n/a	n/a	n/a	Run1BlockList	4	n/a	n/a	n/a	n/a	n/a	n/a	n/a	n/a	n/a	n/a	n/a	n/a	n/a	n/a	n/a	n/a	n/a	n/a	n/a	n/a	n/a	n/a	n/a	n/a	n/a	n/a	n/a	n/a	n/a	n/a	n/a	n/a	n/a	n/a	n/a	n/a	n/a	n/a	n/a	n/a	n/a	n/a	n/a	n/a	n/a	n/a	n/a	n/a	n/a	n/a	n/a	n/a	n/a	n/a	n/a	n/a	n/a	n/a	n/a	n/a	4.0	1.0	4.0	n/a	n/a	n/a	n/a	n/a	n/a	n/a	n/a	n/a	n/a	n/a	n/a	n/a	n/a	n/a	n/a	n/a	n/a	n/a	n/a	n/a	n/a	n/a	n/a	n/a	n/a	n/a	E1_04.jpg	500	0	910447	-1	910447	0	TrialProc1	E1OfficeLargeBlockList	2500	0	907948	0	907948	0	907948	2499	c	971	908919	116.958
120	2.5	000_R01_VB_allProc	4	1	"<?xml version=""1.0""?>\n<Clock xmlns:dt=""urn:schemas-microsoft-com:datatypes""><Description dt:dt=""string"">E-Prime Primary Realtime Clock</Description><StartTime><Timestamp dt:dt=""int"">0</Timestamp><DateUtc dt:dt=""string"">2018-06-14T23:27:22Z</DateUtc></StartTime><FrequencyChanges><FrequencyChange><Frequency dt:dt=""r8"">3020419</Frequency><Timestamp dt:dt=""r8"">82288893538</Timestamp><Current dt:dt=""r8"">0</Current><DateUtc dt:dt=""string"">2018-06-14T23:27:22Z</DateUtc></FrequencyChange></FrequencyChanges></Clock>\n"	000_R01_VB_allProc-004-1	60.024	1.0.0.182	1	685109619	Professional	2.0.10.356	2.0.10.356	06-14-2018	n/a	19:27:22	2.0.10.252	5	0	0	790992	23	790992	3998	-999999	961485	-3	950932	0	Run1Proc	5	1	5	RunList	5	OfficeLarge	8000.0	0.0	916945.0	0.0	916945.0	0.0	916945.0	0.0	E1OfficeLargeBlockProc	5.0	1.0	5.0	n/a	n/a	n/a	n/a	n/a	n/a	n/a	n/a	n/a	n/a	n/a	n/a	Run1BlockList	5	n/a	n/a	n/a	n/a	n/a	n/a	n/a	n/a	n/a	n/a	n/a	n/a	n/a	n/a	n/a	n/a	n/a	n/a	n/a	n/a	n/a	n/a	n/a	n/a	n/a	n/a	n/a	n/a	n/a	n/a	n/a	n/a	n/a	n/a	n/a	n/a	n/a	n/a	n/a	n/a	n/a	n/a	n/a	n/a	n/a	n/a	n/a	n/a	n/a	n/a	n/a	n/a	n/a	n/a	n/a	n/a	n/a	n/a	n/a	n/a	5.0	1.0	5.0	n/a	n/a	n/a	n/a	n/a	n/a	n/a	n/a	n/a	n/a	n/a	n/a	n/a	n/a	n/a	n/a	n/a	n/a	n/a	n/a	n/a	n/a	n/a	n/a	n/a	n/a	n/a	E1_05.jpg	500	0	913446	-1	913446	0	TrialProc1	E1OfficeLargeBlockList	2500	0	910947	0	910947	0	910947	2499	c	628	911575	119.957
123	2.5	000_R01_VB_allProc	4	1	"<?xml version=""1.0""?>\n<Clock xmlns:dt=""urn:schemas-microsoft-com:datatypes""><Description dt:dt=""string"">E-Prime Primary Realtime Clock</Description><StartTime><Timestamp dt:dt=""int"">0</Timestamp><DateUtc dt:dt=""string"">2018-06-14T23:27:22Z</DateUtc></StartTime><FrequencyChanges><FrequencyChange><Frequency dt:dt=""r8"">3020419</Frequency><Timestamp dt:dt=""r8"">82288893538</Timestamp><Current dt:dt=""r8"">0</Current><DateUtc dt:dt=""string"">2018-06-14T23:27:22Z</DateUtc></FrequencyChange></FrequencyChanges></Clock>\n"	000_R01_VB_allProc-004-1	60.024	1.0.0.182	1	685109619	Professional	2.0.10.356	2.0.10.356	06-14-2018	n/a	19:27:22	2.0.10.252	5	0	0	790992	23	790992	3998	-999999	961485	-3	950932	0	Run1Proc	5	1	5	RunList	5	OfficeLarge	8000.0	0.0	916945.0	0.0	916945.0	0.0	916945.0	0.0	E1OfficeLargeBlockProc	5.0	1.0	5.0	n/a	n/a	n/a	n/a	n/a	n/a	n/a	n/a	n/a	n/a	n/a	n/a	Run1BlockList	6	n/a	n/a	n/a	n/a	n/a	n/a	n/a	n/a	n/a	n/a	n/a	n/a	n/a	n/a	n/a	n/a	n/a	n/a	n/a	n/a	n/a	n/a	n/a	n/a	n/a	n/a	n/a	n/a	n/a	n/a	n/a	n/a	n/a	n/a	n/a	n/a	n/a	n/a	n/a	n/a	n/a	n/a	n/a	n/a	n/a	n/a	n/a	n/a	n/a	n/a	n/a	n/a	n/a	n/a	n/a	n/a	n/a	n/a	n/a	n/a	6.0	1.0	6.0	n/a	n/a	n/a	n/a	n/a	n/a	n/a	n/a	n/a	n/a	n/a	n/a	n/a	n/a	n/a	n/a	n/a	n/a	n/a	n/a	n/a	n/a	n/a	n/a	n/a	n/a	n/a	E1_06.jpg	500	0	916445	-1	916445	0	TrialProc1	E1OfficeLargeBlockList	2500	0	913946	0	913946	0	913946	2499	c	877	914823	122.956
134	2.5	000_R01_VB_allProc	4	1	"<?xml version=""1.0""?>\n<Clock xmlns:dt=""urn:schemas-microsoft-com:datatypes""><Description dt:dt=""string"">E-Prime Primary Realtime Clock</Description><StartTime><Timestamp dt:dt=""int"">0</Timestamp><DateUtc dt:dt=""string"">2018-06-14T23:27:22Z</DateUtc></StartTime><FrequencyChanges><FrequencyChange><Frequency dt:dt=""r8"">3020419</Frequency><Timestamp dt:dt=""r8"">82288893538</Timestamp><Current dt:dt=""r8"">0</Current><DateUtc dt:dt=""string"">2018-06-14T23:27:22Z</DateUtc></FrequencyChange></FrequencyChanges></Clock>\n"	000_R01_VB_allProc-004-1	60.024	1.0.0.182	1	685109619	Professional	2.0.10.356	2.0.10.356	06-14-2018	n/a	19:27:22	2.0.10.252	5	0	0	790992	23	790992	3998	-999999	961485	-3	950932	0	Run1Proc	5	1	5	RunList	6	HighSmallED	8000.0	0.0	942935.0	0.0	942935.0	0.0	942935.0	0.0	B1HighSmallEDBlockProc	6.0	1.0	6.0	n/a	n/a	n/a	n/a	n/a	n/a	n/a	n/a	n/a	n/a	n/a	n/a	Run1BlockList	1	n/a	n/a	n/a	n/a	n/a	n/a	n/a	n/a	n/a	n/a	n/a	n/a	n/a	n/a	n/a	1.0	1.0	1.0	n/a	n/a	n/a	n/a	n/a	n/a	n/a	n/a	n/a	n/a	n/a	n/a	n/a	n/a	n/a	n/a	n/a	n/a	n/a	n/a	n/a	n/a	n/a	n/a	n/a	n/a	n/a	n/a	n/a	n/a	n/a	n/a	n/a	n/a	n/a	n/a	n/a	n/a	n/a	n/a	n/a	n/a	n/a	n/a	n/a	n/a	n/a	n/a	n/a	n/a	n/a	n/a	n/a	n/a	n/a	n/a	n/a	n/a	n/a	n/a	n/a	n/a	n/a	n/a	n/a	n/a	n/a	n/a	n/a	n/a	n/a	n/a	B1_01.jpg	500	0	927441	-1	927441	0	TrialProc1	B1HighSmallEDBlockList	2500	0	924942	0	924942	-3	924942	2499	d	1992	926934	133.952
137	2.5	000_R01_VB_allProc	4	1	"<?xml version=""1.0""?>\n<Clock xmlns:dt=""urn:schemas-microsoft-com:datatypes""><Description dt:dt=""string"">E-Prime Primary Realtime Clock</Description><StartTime><Timestamp dt:dt=""int"">0</Timestamp><DateUtc dt:dt=""string"">2018-06-14T23:27:22Z</DateUtc></StartTime><FrequencyChanges><FrequencyChange><Frequency dt:dt=""r8"">3020419</Frequency><Timestamp dt:dt=""r8"">82288893538</Timestamp><Current dt:dt=""r8"">0</Current><DateUtc dt:dt=""string"">2018-06-14T23:27:22Z</DateUtc></FrequencyChange></FrequencyChanges></Clock>\n"	000_R01_VB_allProc-004-1	60.024	1.0.0.182	1	685109619	Professional	2.0.10.356	2.0.10.356	06-14-2018	n/a	19:27:22	2.0.10.252	5	0	0	790992	23	790992	3998	-999999	961485	-3	950932	0	Run1Proc	5	1	5	RunList	6	HighSmallED	8000.0	0.0	942935.0	0.0	942935.0	0.0	942935.0	0.0	B1HighSmallEDBlockProc	6.0	1.0	6.0	n/a	n/a	n/a	n/a	n/a	n/a	n/a	n/a	n/a	n/a	n/a	n/a	Run1BlockList	2	n/a	n/a	n/a	n/a	n/a	n/a	n/a	n/a	n/a	n/a	n/a	n/a	n/a	n/a	n/a	2.0	1.0	2.0	n/a	n/a	n/a	n/a	n/a	n/a	n/a	n/a	n/a	n/a	n/a	n/a	n/a	n/a	n/a	n/a	n/a	n/a	n/a	n/a	n/a	n/a	n/a	n/a	n/a	n/a	n/a	n/a	n/a	n/a	n/a	n/a	n/a	n/a	n/a	n/a	n/a	n/a	n/a	n/a	n/a	n/a	n/a	n/a	n/a	n/a	n/a	n/a	n/a	n/a	n/a	n/a	n/a	n/a	n/a	n/a	n/a	n/a	n/a	n/a	n/a	n/a	n/a	n/a	n/a	n/a	n/a	n/a	n/a	n/a	n/a	n/a	B1_02.jpg	500	0	930440	-1	930440	0	TrialProc1	B1HighSmallEDBlockList	2500	0	927941	0	927941	0	927941	2499	d	17	927958	136.951
140	2.5	000_R01_VB_allProc	4	1	"<?xml version=""1.0""?>\n<Clock xmlns:dt=""urn:schemas-microsoft-com:datatypes""><Description dt:dt=""string"">E-Prime Primary Realtime Clock</Description><StartTime><Timestamp dt:dt=""int"">0</Timestamp><DateUtc dt:dt=""string"">2018-06-14T23:27:22Z</DateUtc></StartTime><FrequencyChanges><FrequencyChange><Frequency dt:dt=""r8"">3020419</Frequency><Timestamp dt:dt=""r8"">82288893538</Timestamp><Current dt:dt=""r8"">0</Current><DateUtc dt:dt=""string"">2018-06-14T23:27:22Z</DateUtc></FrequencyChange></FrequencyChanges></Clock>\n"	000_R01_VB_allProc-004-1	60.024	1.0.0.182	1	685109619	Professional	2.0.10.356	2.0.10.356	06-14-2018	n/a	19:27:22	2.0.10.252	5	0	0	790992	23	790992	3998	-999999	961485	-3	950932	0	Run1Proc	5	1	5	RunList	6	HighSmallED	8000.0	0.0	942935.0	0.0	942935.0	0.0	942935.0	0.0	B1HighSmallEDBlockProc	6.0	1.0	6.0	n/a	n/a	n/a	n/a	n/a	n/a	n/a	n/a	n/a	n/a	n/a	n/a	Run1BlockList	3	n/a	n/a	n/a	n/a	n/a	n/a	n/a	n/a	n/a	n/a	n/a	n/a	n/a	n/a	n/a	3.0	1.0	3.0	n/a	n/a	n/a	n/a	n/a	n/a	n/a	n/a	n/a	n/a	n/a	n/a	n/a	n/a	n/a	n/a	n/a	n/a	n/a	n/a	n/a	n/a	n/a	n/a	n/a	n/a	n/a	n/a	n/a	n/a	n/a	n/a	n/a	n/a	n/a	n/a	n/a	n/a	n/a	n/a	n/a	n/a	n/a	n/a	n/a	n/a	n/a	n/a	n/a	n/a	n/a	n/a	n/a	n/a	n/a	n/a	n/a	n/a	n/a	n/a	n/a	n/a	n/a	n/a	n/a	n/a	n/a	n/a	n/a	n/a	n/a	n/a	B1_03.jpg	500	1	933439	-1	933438	0	TrialProc1	B1HighSmallEDBlockList	2500	0	930940	0	930939	-1	930939	2499	d	211	931150	139.949
143	2.5	000_R01_VB_allProc	4	1	"<?xml version=""1.0""?>\n<Clock xmlns:dt=""urn:schemas-microsoft-com:datatypes""><Description dt:dt=""string"">E-Prime Primary Realtime Clock</Description><StartTime><Timestamp dt:dt=""int"">0</Timestamp><DateUtc dt:dt=""string"">2018-06-14T23:27:22Z</DateUtc></StartTime><FrequencyChanges><FrequencyChange><Frequency dt:dt=""r8"">3020419</Frequency><Timestamp dt:dt=""r8"">82288893538</Timestamp><Current dt:dt=""r8"">0</Current><DateUtc dt:dt=""string"">2018-06-14T23:27:22Z</DateUtc></FrequencyChange></FrequencyChanges></Clock>\n"	000_R01_VB_allProc-004-1	60.024	1.0.0.182	1	685109619	Professional	2.0.10.356	2.0.10.356	06-14-2018	n/a	19:27:22	2.0.10.252	5	0	0	790992	23	790992	3998	-999999	961485	-3	950932	0	Run1Proc	5	1	5	RunList	6	HighSmallED	8000.0	0.0	942935.0	0.0	942935.0	0.0	942935.0	0.0	B1HighSmallEDBlockProc	6.0	1.0	6.0	n/a	n/a	n/a	n/a	n/a	n/a	n/a	n/a	n/a	n/a	n/a	n/a	Run1BlockList	4	n/a	n/a	n/a	n/a	n/a	n/a	n/a	n/a	n/a	n/a	n/a	n/a	n/a	n/a	n/a	4.0	1.0	4.0	n/a	n/a	n/a	n/a	n/a	n/a	n/a	n/a	n/a	n/a	n/a	n/a	n/a	n/a	n/a	n/a	n/a	n/a	n/a	n/a	n/a	n/a	n/a	n/a	n/a	n/a	n/a	n/a	n/a	n/a	n/a	n/a	n/a	n/a	n/a	n/a	n/a	n/a	n/a	n/a	n/a	n/a	n/a	n/a	n/a	n/a	n/a	n/a	n/a	n/a	n/a	n/a	n/a	n/a	n/a	n/a	n/a	n/a	n/a	n/a	n/a	n/a	n/a	n/a	n/a	n/a	n/a	n/a	n/a	n/a	n/a	n/a	B1_04.jpg	500	0	936437	-1	936437	0	TrialProc1	B1HighSmallEDBlockList	2500	0	933938	0	933938	0	933938	2499	d	492	934430	142.948
146	2.5	000_R01_VB_allProc	4	1	"<?xml version=""1.0""?>\n<Clock xmlns:dt=""urn:schemas-microsoft-com:datatypes""><Description dt:dt=""string"">E-Prime Primary Realtime Clock</Description><StartTime><Timestamp dt:dt=""int"">0</Timestamp><DateUtc dt:dt=""string"">2018-06-14T23:27:22Z</DateUtc></StartTime><FrequencyChanges><FrequencyChange><Frequency dt:dt=""r8"">3020419</Frequency><Timestamp dt:dt=""r8"">82288893538</Timestamp><Current dt:dt=""r8"">0</Current><DateUtc dt:dt=""string"">2018-06-14T23:27:22Z</DateUtc></FrequencyChange></FrequencyChanges></Clock>\n"	000_R01_VB_allProc-004-1	60.024	1.0.0.182	1	685109619	Professional	2.0.10.356	2.0.10.356	06-14-2018	n/a	19:27:22	2.0.10.252	5	0	0	790992	23	790992	3998	-999999	961485	-3	950932	0	Run1Proc	5	1	5	RunList	6	HighSmallED	8000.0	0.0	942935.0	0.0	942935.0	0.0	942935.0	0.0	B1HighSmallEDBlockProc	6.0	1.0	6.0	n/a	n/a	n/a	n/a	n/a	n/a	n/a	n/a	n/a	n/a	n/a	n/a	Run1BlockList	5	n/a	n/a	n/a	n/a	n/a	n/a	n/a	n/a	n/a	n/a	n/a	n/a	n/a	n/a	n/a	5.0	1.0	5.0	n/a	n/a	n/a	n/a	n/a	n/a	n/a	n/a	n/a	n/a	n/a	n/a	n/a	n/a	n/a	n/a	n/a	n/a	n/a	n/a	n/a	n/a	n/a	n/a	n/a	n/a	n/a	n/a	n/a	n/a	n/a	n/a	n/a	n/a	n/a	n/a	n/a	n/a	n/a	n/a	n/a	n/a	n/a	n/a	n/a	n/a	n/a	n/a	n/a	n/a	n/a	n/a	n/a	n/a	n/a	n/a	n/a	n/a	n/a	n/a	n/a	n/a	n/a	n/a	n/a	n/a	n/a	n/a	n/a	n/a	n/a	n/a	B1_05.jpg	500	0	939436	-1	939436	0	TrialProc1	B1HighSmallEDBlockList	2500	0	936937	0	936937	0	936937	2499	d	789	937726	145.947
149	2.5	000_R01_VB_allProc	4	1	"<?xml version=""1.0""?>\n<Clock xmlns:dt=""urn:schemas-microsoft-com:datatypes""><Description dt:dt=""string"">E-Prime Primary Realtime Clock</Description><StartTime><Timestamp dt:dt=""int"">0</Timestamp><DateUtc dt:dt=""string"">2018-06-14T23:27:22Z</DateUtc></StartTime><FrequencyChanges><FrequencyChange><Frequency dt:dt=""r8"">3020419</Frequency><Timestamp dt:dt=""r8"">82288893538</Timestamp><Current dt:dt=""r8"">0</Current><DateUtc dt:dt=""string"">2018-06-14T23:27:22Z</DateUtc></FrequencyChange></FrequencyChanges></Clock>\n"	000_R01_VB_allProc-004-1	60.024	1.0.0.182	1	685109619	Professional	2.0.10.356	2.0.10.356	06-14-2018	n/a	19:27:22	2.0.10.252	5	0	0	790992	23	790992	3998	-999999	961485	-3	950932	0	Run1Proc	5	1	5	RunList	6	HighSmallED	8000.0	0.0	942935.0	0.0	942935.0	0.0	942935.0	0.0	B1HighSmallEDBlockProc	6.0	1.0	6.0	n/a	n/a	n/a	n/a	n/a	n/a	n/a	n/a	n/a	n/a	n/a	n/a	Run1BlockList	6	n/a	n/a	n/a	n/a	n/a	n/a	n/a	n/a	n/a	n/a	n/a	n/a	n/a	n/a	n/a	6.0	1.0	6.0	n/a	n/a	n/a	n/a	n/a	n/a	n/a	n/a	n/a	n/a	n/a	n/a	n/a	n/a	n/a	n/a	n/a	n/a	n/a	n/a	n/a	n/a	n/a	n/a	n/a	n/a	n/a	n/a	n/a	n/a	n/a	n/a	n/a	n/a	n/a	n/a	n/a	n/a	n/a	n/a	n/a	n/a	n/a	n/a	n/a	n/a	n/a	n/a	n/a	n/a	n/a	n/a	n/a	n/a	n/a	n/a	n/a	n/a	n/a	n/a	n/a	n/a	n/a	n/a	n/a	n/a	n/a	n/a	n/a	n/a	n/a	n/a	B1_06.jpg	500	0	942435	-1	942435	0	TrialProc1	B1HighSmallEDBlockList	2500	0	939936	0	939936	0	939936	2499	d	902	940838	148.946
