onset	duration	experiment_name	sub	ses	clock_information	datafile_basename	display_refreshrate	experiment_version	group	randomseed	runtime_capabilities	runtime_version	runtimeversionexpected	session_date	session_start_date_time_utc	session_time	studio_version	block	fixation2trs_durationerror	fixation2trs_offsetdelay	fixation2trs_offsettime	fixation2trs_onsetdelay	fixation2trs_onsettime	fixation2trs_onsettoonsettime	goodwork_durationerror	goodwork_finishtime	goodwork_onsetdelay	goodwork_onsettime	goodwork_onsettoonsettime	procedure_block	runlist	runlist_cycle	runlist_sample	running_block	trial	condition	interblockinterval_duration	interblockinterval_durationerror	interblockinterval_finishtime	interblockinterval_offsetdelay	interblockinterval_offsettime	interblockinterval_onsetdelay	interblockinterval_onsettime	interblockinterval_onsettoonsettime	procedure_trial	run1blocklist	run1blocklist_cycle	run1blocklist_sample	run2blocklist	run2blocklist_cycle	run2blocklist_sample	run3blocklist	run3blocklist_cycle	run3blocklist_sample	run4blocklist	run4blocklist_cycle	run4blocklist_sample	run5blocklist	run5blocklist_cycle	run5blocklist_sample	running_trial	subtrial	a1highlargeedblocklist	a1highlargeedblocklist_cycle	a1highlargeedblocklist_sample	a2highlargeedblocklist	a2highlargeedblocklist_cycle	a2highlargeedblocklist_sample	a3highlargeedblocklist	a3highlargeedblocklist_cycle	a3highlargeedblocklist_sample	a4highlargeedblocklist	a4highlargeedblocklist_cycle	a4highlargeedblocklist_sample	a5highlargeedblocklist	a5highlargeedblocklist_cycle	a5highlargeedblocklist_sample	b1highsmalledblocklist	b1highsmalledblocklist_cycle	b1highsmalledblocklist_sample	b2highsmalledblocklist	b2highsmalledblocklist_cycle	b2highsmalledblocklist_sample	b3highsmalledblocklist	b3highsmalledblocklist_cycle	b3highsmalledblocklist_sample	b4highsmalledblocklist	b4highsmalledblocklist_cycle	b4highsmalledblocklist_sample	b5highsmalledblocklist	b5highsmalledblocklist_cycle	b5highsmalledblocklist_sample	c1lowlargeedblocklist	c1lowlargeedblocklist_cycle	c1lowlargeedblocklist_sample	c2lowlargeedblocklist	c2lowlargeedblocklist_cycle	c2lowlargeedblocklist_sample	c3lowlargeedblocklist	c3lowlargeedblocklist_cycle	c3lowlargeedblocklist_sample	c4lowlargeedblocklist	c4lowlargeedblocklist_cycle	c4lowlargeedblocklist_sample	c5lowlargeedblocklist	c5lowlargeedblocklist_cycle	c5lowlargeedblocklist_sample	d1lowsmalledblocklist	d1lowsmalledblocklist_cycle	d1lowsmalledblocklist_sample	d2highlargeedblocklist	d2highlargeedblocklist_cycle	d2highlargeedblocklist_sample	d3lowsmalledblocklist	d3lowsmalledblocklist_cycle	d3lowsmalledblocklist_sample	d4lowsmalledblocklist	d4lowsmalledblocklist_cycle	d4lowsmalledblocklist_sample	d5lowsmalledblocklist	d5lowsmalledblocklist_cycle	d5lowsmalledblocklist_sample	e1officelargeblocklist	e1officelargeblocklist_cycle	e1officelargeblocklist_sample	e2officelargeblocklist	e2officelargeblocklist_cycle	e2officelargeblocklist_sample	e3officelargeblocklist	e3officelargeblocklist_cycle	e3officelargeblocklist_sample	e4officelargeblocklist	e4officelargeblocklist_cycle	e4officelargeblocklist_sample	e5officelargeblocklist	e5officelargeblocklist_cycle	e5officelargeblocklist_sample	f1officesmallblocklist	f1officesmallblocklist_cycle	f1officesmallblocklist_sample	f2officesmallblocklist	f2officesmallblocklist_cycle	f2officesmallblocklist_sample	f3officesmallblocklist	f3officesmallblocklist_cycle	f3officesmallblocklist_sample	f4officesmallblocklist	f4officesmallblocklist_cycle	f4officesmallblocklist_sample	f5officesmallblocklist	f5officesmallblocklist_cycle	f5officesmallblocklist_sample	filename	isi_duration	isi_durationerror	isi_finishtime	isi_onsetdelay	isi_onsettime	isi_onsettoonsettime	procedure_subtrial	running_subtrial	stimslide_duration	stimslide_durationerror	stimslide_finishtime	stimslide_offsetdelay	stimslide_offsettime	stimslide_onsetdelay	stimslide_onsettime	stimslide_onsettoonsettime	stimslide_resp	stimslide_rt	stimslide_rttime	onset_unrounded
4	2.5	000_R01_VA_allProc	94	1	"<?xml version=""1.0""?>\n<Clock xmlns:dt=""urn:schemas-microsoft-com:datatypes""><Description dt:dt=""string"">E-Prime Primary Realtime Clock</Description><StartTime><Timestamp dt:dt=""int"">0</Timestamp><DateUtc dt:dt=""string"">2020-01-27T22:02:22Z</DateUtc></StartTime><FrequencyChanges><FrequencyChange><Frequency dt:dt=""r8"">3020361</Frequency><Timestamp dt:dt=""r8"">62384989500</Timestamp><Current dt:dt=""r8"">0</Current><DateUtc dt:dt=""string"">2020-01-27T22:02:22Z</DateUtc></FrequencyChange></FrequencyChanges></Clock>\n"	000_R01_VA_allProc-94-1	60.0	1.0.0.229	1	-2038944048	Professional	2.0.10.356	2.0.10.356	01-27-2020	n/a	17:02:22	2.0.10.252	4	0	0	626023	13	626023	4000	-999999	803548	0	786672	0	Run5Proc	4	1	4	RunList	1	LowLargeED	8000	0	648023	0	648023	0	648023	0	C5LowLargeEDBlockProc	n/a	n/a	n/a	n/a	n/a	n/a	n/a	n/a	n/a	n/a	n/a	n/a	1.0	1.0	1.0	Run5BlockList	1	n/a	n/a	n/a	n/a	n/a	n/a	n/a	n/a	n/a	n/a	n/a	n/a	n/a	n/a	n/a	n/a	n/a	n/a	n/a	n/a	n/a	n/a	n/a	n/a	n/a	n/a	n/a	n/a	n/a	n/a	n/a	n/a	n/a	n/a	n/a	n/a	n/a	n/a	n/a	n/a	n/a	n/a	1.0	1.0	1.0	n/a	n/a	n/a	n/a	n/a	n/a	n/a	n/a	n/a	n/a	n/a	n/a	n/a	n/a	n/a	n/a	n/a	n/a	n/a	n/a	n/a	n/a	n/a	n/a	n/a	n/a	n/a	n/a	n/a	n/a	n/a	n/a	n/a	n/a	n/a	n/a	n/a	n/a	n/a	n/a	n/a	n/a	n/a	n/a	n/a	C5_01.jpg	500	0	632523	0	632523	0	TrialProc1	C5LowLargeEDBlockList	2500	0	630023	0	630023	0	630023	2500	c	1621	631644	4.0
7	2.5	000_R01_VA_allProc	94	1	"<?xml version=""1.0""?>\n<Clock xmlns:dt=""urn:schemas-microsoft-com:datatypes""><Description dt:dt=""string"">E-Prime Primary Realtime Clock</Description><StartTime><Timestamp dt:dt=""int"">0</Timestamp><DateUtc dt:dt=""string"">2020-01-27T22:02:22Z</DateUtc></StartTime><FrequencyChanges><FrequencyChange><Frequency dt:dt=""r8"">3020361</Frequency><Timestamp dt:dt=""r8"">62384989500</Timestamp><Current dt:dt=""r8"">0</Current><DateUtc dt:dt=""string"">2020-01-27T22:02:22Z</DateUtc></FrequencyChange></FrequencyChanges></Clock>\n"	000_R01_VA_allProc-94-1	60.0	1.0.0.229	1	-2038944048	Professional	2.0.10.356	2.0.10.356	01-27-2020	n/a	17:02:22	2.0.10.252	4	0	0	626023	13	626023	4000	-999999	803548	0	786672	0	Run5Proc	4	1	4	RunList	1	LowLargeED	8000	0	648023	0	648023	0	648023	0	C5LowLargeEDBlockProc	n/a	n/a	n/a	n/a	n/a	n/a	n/a	n/a	n/a	n/a	n/a	n/a	1.0	1.0	1.0	Run5BlockList	2	n/a	n/a	n/a	n/a	n/a	n/a	n/a	n/a	n/a	n/a	n/a	n/a	n/a	n/a	n/a	n/a	n/a	n/a	n/a	n/a	n/a	n/a	n/a	n/a	n/a	n/a	n/a	n/a	n/a	n/a	n/a	n/a	n/a	n/a	n/a	n/a	n/a	n/a	n/a	n/a	n/a	n/a	2.0	1.0	2.0	n/a	n/a	n/a	n/a	n/a	n/a	n/a	n/a	n/a	n/a	n/a	n/a	n/a	n/a	n/a	n/a	n/a	n/a	n/a	n/a	n/a	n/a	n/a	n/a	n/a	n/a	n/a	n/a	n/a	n/a	n/a	n/a	n/a	n/a	n/a	n/a	n/a	n/a	n/a	n/a	n/a	n/a	n/a	n/a	n/a	C5_02.jpg	500	0	635523	0	635523	0	TrialProc1	C5LowLargeEDBlockList	2500	0	633023	0	633023	0	633023	2500	c	1357	634380	7.0
10	2.5	000_R01_VA_allProc	94	1	"<?xml version=""1.0""?>\n<Clock xmlns:dt=""urn:schemas-microsoft-com:datatypes""><Description dt:dt=""string"">E-Prime Primary Realtime Clock</Description><StartTime><Timestamp dt:dt=""int"">0</Timestamp><DateUtc dt:dt=""string"">2020-01-27T22:02:22Z</DateUtc></StartTime><FrequencyChanges><FrequencyChange><Frequency dt:dt=""r8"">3020361</Frequency><Timestamp dt:dt=""r8"">62384989500</Timestamp><Current dt:dt=""r8"">0</Current><DateUtc dt:dt=""string"">2020-01-27T22:02:22Z</DateUtc></FrequencyChange></FrequencyChanges></Clock>\n"	000_R01_VA_allProc-94-1	60.0	1.0.0.229	1	-2038944048	Professional	2.0.10.356	2.0.10.356	01-27-2020	n/a	17:02:22	2.0.10.252	4	0	0	626023	13	626023	4000	-999999	803548	0	786672	0	Run5Proc	4	1	4	RunList	1	LowLargeED	8000	0	648023	0	648023	0	648023	0	C5LowLargeEDBlockProc	n/a	n/a	n/a	n/a	n/a	n/a	n/a	n/a	n/a	n/a	n/a	n/a	1.0	1.0	1.0	Run5BlockList	3	n/a	n/a	n/a	n/a	n/a	n/a	n/a	n/a	n/a	n/a	n/a	n/a	n/a	n/a	n/a	n/a	n/a	n/a	n/a	n/a	n/a	n/a	n/a	n/a	n/a	n/a	n/a	n/a	n/a	n/a	n/a	n/a	n/a	n/a	n/a	n/a	n/a	n/a	n/a	n/a	n/a	n/a	3.0	1.0	3.0	n/a	n/a	n/a	n/a	n/a	n/a	n/a	n/a	n/a	n/a	n/a	n/a	n/a	n/a	n/a	n/a	n/a	n/a	n/a	n/a	n/a	n/a	n/a	n/a	n/a	n/a	n/a	n/a	n/a	n/a	n/a	n/a	n/a	n/a	n/a	n/a	n/a	n/a	n/a	n/a	n/a	n/a	n/a	n/a	n/a	C5_03.jpg	500	0	638523	0	638523	0	TrialProc1	C5LowLargeEDBlockList	2500	0	636023	0	636023	0	636023	2500	c	1077	637100	10.0
13	2.5	000_R01_VA_allProc	94	1	"<?xml version=""1.0""?>\n<Clock xmlns:dt=""urn:schemas-microsoft-com:datatypes""><Description dt:dt=""string"">E-Prime Primary Realtime Clock</Description><StartTime><Timestamp dt:dt=""int"">0</Timestamp><DateUtc dt:dt=""string"">2020-01-27T22:02:22Z</DateUtc></StartTime><FrequencyChanges><FrequencyChange><Frequency dt:dt=""r8"">3020361</Frequency><Timestamp dt:dt=""r8"">62384989500</Timestamp><Current dt:dt=""r8"">0</Current><DateUtc dt:dt=""string"">2020-01-27T22:02:22Z</DateUtc></FrequencyChange></FrequencyChanges></Clock>\n"	000_R01_VA_allProc-94-1	60.0	1.0.0.229	1	-2038944048	Professional	2.0.10.356	2.0.10.356	01-27-2020	n/a	17:02:22	2.0.10.252	4	0	0	626023	13	626023	4000	-999999	803548	0	786672	0	Run5Proc	4	1	4	RunList	1	LowLargeED	8000	0	648023	0	648023	0	648023	0	C5LowLargeEDBlockProc	n/a	n/a	n/a	n/a	n/a	n/a	n/a	n/a	n/a	n/a	n/a	n/a	1.0	1.0	1.0	Run5BlockList	4	n/a	n/a	n/a	n/a	n/a	n/a	n/a	n/a	n/a	n/a	n/a	n/a	n/a	n/a	n/a	n/a	n/a	n/a	n/a	n/a	n/a	n/a	n/a	n/a	n/a	n/a	n/a	n/a	n/a	n/a	n/a	n/a	n/a	n/a	n/a	n/a	n/a	n/a	n/a	n/a	n/a	n/a	4.0	1.0	4.0	n/a	n/a	n/a	n/a	n/a	n/a	n/a	n/a	n/a	n/a	n/a	n/a	n/a	n/a	n/a	n/a	n/a	n/a	n/a	n/a	n/a	n/a	n/a	n/a	n/a	n/a	n/a	n/a	n/a	n/a	n/a	n/a	n/a	n/a	n/a	n/a	n/a	n/a	n/a	n/a	n/a	n/a	n/a	n/a	n/a	C5_04.jpg	500	0	641523	0	641523	0	TrialProc1	C5LowLargeEDBlockList	2500	0	639023	0	639023	0	639023	2500	d	1421	640444	13.0
16	2.5	000_R01_VA_allProc	94	1	"<?xml version=""1.0""?>\n<Clock xmlns:dt=""urn:schemas-microsoft-com:datatypes""><Description dt:dt=""string"">E-Prime Primary Realtime Clock</Description><StartTime><Timestamp dt:dt=""int"">0</Timestamp><DateUtc dt:dt=""string"">2020-01-27T22:02:22Z</DateUtc></StartTime><FrequencyChanges><FrequencyChange><Frequency dt:dt=""r8"">3020361</Frequency><Timestamp dt:dt=""r8"">62384989500</Timestamp><Current dt:dt=""r8"">0</Current><DateUtc dt:dt=""string"">2020-01-27T22:02:22Z</DateUtc></FrequencyChange></FrequencyChanges></Clock>\n"	000_R01_VA_allProc-94-1	60.0	1.0.0.229	1	-2038944048	Professional	2.0.10.356	2.0.10.356	01-27-2020	n/a	17:02:22	2.0.10.252	4	0	0	626023	13	626023	4000	-999999	803548	0	786672	0	Run5Proc	4	1	4	RunList	1	LowLargeED	8000	0	648023	0	648023	0	648023	0	C5LowLargeEDBlockProc	n/a	n/a	n/a	n/a	n/a	n/a	n/a	n/a	n/a	n/a	n/a	n/a	1.0	1.0	1.0	Run5BlockList	5	n/a	n/a	n/a	n/a	n/a	n/a	n/a	n/a	n/a	n/a	n/a	n/a	n/a	n/a	n/a	n/a	n/a	n/a	n/a	n/a	n/a	n/a	n/a	n/a	n/a	n/a	n/a	n/a	n/a	n/a	n/a	n/a	n/a	n/a	n/a	n/a	n/a	n/a	n/a	n/a	n/a	n/a	5.0	1.0	5.0	n/a	n/a	n/a	n/a	n/a	n/a	n/a	n/a	n/a	n/a	n/a	n/a	n/a	n/a	n/a	n/a	n/a	n/a	n/a	n/a	n/a	n/a	n/a	n/a	n/a	n/a	n/a	n/a	n/a	n/a	n/a	n/a	n/a	n/a	n/a	n/a	n/a	n/a	n/a	n/a	n/a	n/a	n/a	n/a	n/a	C5_05.jpg	500	0	644523	0	644523	0	TrialProc1	C5LowLargeEDBlockList	2500	0	642023	0	642023	0	642023	2500	d	1277	643300	16.0
19	2.5	000_R01_VA_allProc	94	1	"<?xml version=""1.0""?>\n<Clock xmlns:dt=""urn:schemas-microsoft-com:datatypes""><Description dt:dt=""string"">E-Prime Primary Realtime Clock</Description><StartTime><Timestamp dt:dt=""int"">0</Timestamp><DateUtc dt:dt=""string"">2020-01-27T22:02:22Z</DateUtc></StartTime><FrequencyChanges><FrequencyChange><Frequency dt:dt=""r8"">3020361</Frequency><Timestamp dt:dt=""r8"">62384989500</Timestamp><Current dt:dt=""r8"">0</Current><DateUtc dt:dt=""string"">2020-01-27T22:02:22Z</DateUtc></FrequencyChange></FrequencyChanges></Clock>\n"	000_R01_VA_allProc-94-1	60.0	1.0.0.229	1	-2038944048	Professional	2.0.10.356	2.0.10.356	01-27-2020	n/a	17:02:22	2.0.10.252	4	0	0	626023	13	626023	4000	-999999	803548	0	786672	0	Run5Proc	4	1	4	RunList	1	LowLargeED	8000	0	648023	0	648023	0	648023	0	C5LowLargeEDBlockProc	n/a	n/a	n/a	n/a	n/a	n/a	n/a	n/a	n/a	n/a	n/a	n/a	1.0	1.0	1.0	Run5BlockList	6	n/a	n/a	n/a	n/a	n/a	n/a	n/a	n/a	n/a	n/a	n/a	n/a	n/a	n/a	n/a	n/a	n/a	n/a	n/a	n/a	n/a	n/a	n/a	n/a	n/a	n/a	n/a	n/a	n/a	n/a	n/a	n/a	n/a	n/a	n/a	n/a	n/a	n/a	n/a	n/a	n/a	n/a	6.0	1.0	6.0	n/a	n/a	n/a	n/a	n/a	n/a	n/a	n/a	n/a	n/a	n/a	n/a	n/a	n/a	n/a	n/a	n/a	n/a	n/a	n/a	n/a	n/a	n/a	n/a	n/a	n/a	n/a	n/a	n/a	n/a	n/a	n/a	n/a	n/a	n/a	n/a	n/a	n/a	n/a	n/a	n/a	n/a	n/a	n/a	n/a	C5_06.jpg	500	0	647523	0	647523	0	TrialProc1	C5LowLargeEDBlockList	2500	0	645023	0	645023	0	645023	2500	d	1437	646460	19.0
30	2.5	000_R01_VA_allProc	94	1	"<?xml version=""1.0""?>\n<Clock xmlns:dt=""urn:schemas-microsoft-com:datatypes""><Description dt:dt=""string"">E-Prime Primary Realtime Clock</Description><StartTime><Timestamp dt:dt=""int"">0</Timestamp><DateUtc dt:dt=""string"">2020-01-27T22:02:22Z</DateUtc></StartTime><FrequencyChanges><FrequencyChange><Frequency dt:dt=""r8"">3020361</Frequency><Timestamp dt:dt=""r8"">62384989500</Timestamp><Current dt:dt=""r8"">0</Current><DateUtc dt:dt=""string"">2020-01-27T22:02:22Z</DateUtc></FrequencyChange></FrequencyChanges></Clock>\n"	000_R01_VA_allProc-94-1	60.0	1.0.0.229	1	-2038944048	Professional	2.0.10.356	2.0.10.356	01-27-2020	n/a	17:02:22	2.0.10.252	4	0	0	626023	13	626023	4000	-999999	803548	0	786672	0	Run5Proc	4	1	4	RunList	2	OfficeSmall	8000	0	674023	0	674023	0	674023	0	F5OfficeSmallBlockProc	n/a	n/a	n/a	n/a	n/a	n/a	n/a	n/a	n/a	n/a	n/a	n/a	2.0	1.0	2.0	Run5BlockList	1	n/a	n/a	n/a	n/a	n/a	n/a	n/a	n/a	n/a	n/a	n/a	n/a	n/a	n/a	n/a	n/a	n/a	n/a	n/a	n/a	n/a	n/a	n/a	n/a	n/a	n/a	n/a	n/a	n/a	n/a	n/a	n/a	n/a	n/a	n/a	n/a	n/a	n/a	n/a	n/a	n/a	n/a	n/a	n/a	n/a	n/a	n/a	n/a	n/a	n/a	n/a	n/a	n/a	n/a	n/a	n/a	n/a	n/a	n/a	n/a	n/a	n/a	n/a	n/a	n/a	n/a	n/a	n/a	n/a	n/a	n/a	n/a	n/a	n/a	n/a	n/a	n/a	n/a	n/a	n/a	n/a	n/a	n/a	n/a	n/a	n/a	n/a	1.0	1.0	1.0	F5_01.jpg	500	0	658523	0	658523	0	TrialProc1	F5OfficeSmallBlockList	2500	0	656023	0	656023	0	656023	2500	c	2013	658036	30.0
33	2.5	000_R01_VA_allProc	94	1	"<?xml version=""1.0""?>\n<Clock xmlns:dt=""urn:schemas-microsoft-com:datatypes""><Description dt:dt=""string"">E-Prime Primary Realtime Clock</Description><StartTime><Timestamp dt:dt=""int"">0</Timestamp><DateUtc dt:dt=""string"">2020-01-27T22:02:22Z</DateUtc></StartTime><FrequencyChanges><FrequencyChange><Frequency dt:dt=""r8"">3020361</Frequency><Timestamp dt:dt=""r8"">62384989500</Timestamp><Current dt:dt=""r8"">0</Current><DateUtc dt:dt=""string"">2020-01-27T22:02:22Z</DateUtc></FrequencyChange></FrequencyChanges></Clock>\n"	000_R01_VA_allProc-94-1	60.0	1.0.0.229	1	-2038944048	Professional	2.0.10.356	2.0.10.356	01-27-2020	n/a	17:02:22	2.0.10.252	4	0	0	626023	13	626023	4000	-999999	803548	0	786672	0	Run5Proc	4	1	4	RunList	2	OfficeSmall	8000	0	674023	0	674023	0	674023	0	F5OfficeSmallBlockProc	n/a	n/a	n/a	n/a	n/a	n/a	n/a	n/a	n/a	n/a	n/a	n/a	2.0	1.0	2.0	Run5BlockList	2	n/a	n/a	n/a	n/a	n/a	n/a	n/a	n/a	n/a	n/a	n/a	n/a	n/a	n/a	n/a	n/a	n/a	n/a	n/a	n/a	n/a	n/a	n/a	n/a	n/a	n/a	n/a	n/a	n/a	n/a	n/a	n/a	n/a	n/a	n/a	n/a	n/a	n/a	n/a	n/a	n/a	n/a	n/a	n/a	n/a	n/a	n/a	n/a	n/a	n/a	n/a	n/a	n/a	n/a	n/a	n/a	n/a	n/a	n/a	n/a	n/a	n/a	n/a	n/a	n/a	n/a	n/a	n/a	n/a	n/a	n/a	n/a	n/a	n/a	n/a	n/a	n/a	n/a	n/a	n/a	n/a	n/a	n/a	n/a	n/a	n/a	n/a	2.0	1.0	2.0	F5_02.jpg	500	0	661523	0	661523	0	TrialProc1	F5OfficeSmallBlockList	2500	0	659023	0	659023	0	659023	2500	d	1357	660380	33.0
36	2.5	000_R01_VA_allProc	94	1	"<?xml version=""1.0""?>\n<Clock xmlns:dt=""urn:schemas-microsoft-com:datatypes""><Description dt:dt=""string"">E-Prime Primary Realtime Clock</Description><StartTime><Timestamp dt:dt=""int"">0</Timestamp><DateUtc dt:dt=""string"">2020-01-27T22:02:22Z</DateUtc></StartTime><FrequencyChanges><FrequencyChange><Frequency dt:dt=""r8"">3020361</Frequency><Timestamp dt:dt=""r8"">62384989500</Timestamp><Current dt:dt=""r8"">0</Current><DateUtc dt:dt=""string"">2020-01-27T22:02:22Z</DateUtc></FrequencyChange></FrequencyChanges></Clock>\n"	000_R01_VA_allProc-94-1	60.0	1.0.0.229	1	-2038944048	Professional	2.0.10.356	2.0.10.356	01-27-2020	n/a	17:02:22	2.0.10.252	4	0	0	626023	13	626023	4000	-999999	803548	0	786672	0	Run5Proc	4	1	4	RunList	2	OfficeSmall	8000	0	674023	0	674023	0	674023	0	F5OfficeSmallBlockProc	n/a	n/a	n/a	n/a	n/a	n/a	n/a	n/a	n/a	n/a	n/a	n/a	2.0	1.0	2.0	Run5BlockList	3	n/a	n/a	n/a	n/a	n/a	n/a	n/a	n/a	n/a	n/a	n/a	n/a	n/a	n/a	n/a	n/a	n/a	n/a	n/a	n/a	n/a	n/a	n/a	n/a	n/a	n/a	n/a	n/a	n/a	n/a	n/a	n/a	n/a	n/a	n/a	n/a	n/a	n/a	n/a	n/a	n/a	n/a	n/a	n/a	n/a	n/a	n/a	n/a	n/a	n/a	n/a	n/a	n/a	n/a	n/a	n/a	n/a	n/a	n/a	n/a	n/a	n/a	n/a	n/a	n/a	n/a	n/a	n/a	n/a	n/a	n/a	n/a	n/a	n/a	n/a	n/a	n/a	n/a	n/a	n/a	n/a	n/a	n/a	n/a	n/a	n/a	n/a	3.0	1.0	3.0	F5_03.jpg	500	0	664523	0	664523	0	TrialProc1	F5OfficeSmallBlockList	2500	0	662023	0	662023	0	662023	2500	n/a	0	0	36.0
39	2.5	000_R01_VA_allProc	94	1	"<?xml version=""1.0""?>\n<Clock xmlns:dt=""urn:schemas-microsoft-com:datatypes""><Description dt:dt=""string"">E-Prime Primary Realtime Clock</Description><StartTime><Timestamp dt:dt=""int"">0</Timestamp><DateUtc dt:dt=""string"">2020-01-27T22:02:22Z</DateUtc></StartTime><FrequencyChanges><FrequencyChange><Frequency dt:dt=""r8"">3020361</Frequency><Timestamp dt:dt=""r8"">62384989500</Timestamp><Current dt:dt=""r8"">0</Current><DateUtc dt:dt=""string"">2020-01-27T22:02:22Z</DateUtc></FrequencyChange></FrequencyChanges></Clock>\n"	000_R01_VA_allProc-94-1	60.0	1.0.0.229	1	-2038944048	Professional	2.0.10.356	2.0.10.356	01-27-2020	n/a	17:02:22	2.0.10.252	4	0	0	626023	13	626023	4000	-999999	803548	0	786672	0	Run5Proc	4	1	4	RunList	2	OfficeSmall	8000	0	674023	0	674023	0	674023	0	F5OfficeSmallBlockProc	n/a	n/a	n/a	n/a	n/a	n/a	n/a	n/a	n/a	n/a	n/a	n/a	2.0	1.0	2.0	Run5BlockList	4	n/a	n/a	n/a	n/a	n/a	n/a	n/a	n/a	n/a	n/a	n/a	n/a	n/a	n/a	n/a	n/a	n/a	n/a	n/a	n/a	n/a	n/a	n/a	n/a	n/a	n/a	n/a	n/a	n/a	n/a	n/a	n/a	n/a	n/a	n/a	n/a	n/a	n/a	n/a	n/a	n/a	n/a	n/a	n/a	n/a	n/a	n/a	n/a	n/a	n/a	n/a	n/a	n/a	n/a	n/a	n/a	n/a	n/a	n/a	n/a	n/a	n/a	n/a	n/a	n/a	n/a	n/a	n/a	n/a	n/a	n/a	n/a	n/a	n/a	n/a	n/a	n/a	n/a	n/a	n/a	n/a	n/a	n/a	n/a	n/a	n/a	n/a	4.0	1.0	4.0	F5_04.jpg	500	0	667523	0	667523	0	TrialProc1	F5OfficeSmallBlockList	2500	0	665023	0	665023	0	665023	2500	c	1125	666148	39.0
42	2.5	000_R01_VA_allProc	94	1	"<?xml version=""1.0""?>\n<Clock xmlns:dt=""urn:schemas-microsoft-com:datatypes""><Description dt:dt=""string"">E-Prime Primary Realtime Clock</Description><StartTime><Timestamp dt:dt=""int"">0</Timestamp><DateUtc dt:dt=""string"">2020-01-27T22:02:22Z</DateUtc></StartTime><FrequencyChanges><FrequencyChange><Frequency dt:dt=""r8"">3020361</Frequency><Timestamp dt:dt=""r8"">62384989500</Timestamp><Current dt:dt=""r8"">0</Current><DateUtc dt:dt=""string"">2020-01-27T22:02:22Z</DateUtc></FrequencyChange></FrequencyChanges></Clock>\n"	000_R01_VA_allProc-94-1	60.0	1.0.0.229	1	-2038944048	Professional	2.0.10.356	2.0.10.356	01-27-2020	n/a	17:02:22	2.0.10.252	4	0	0	626023	13	626023	4000	-999999	803548	0	786672	0	Run5Proc	4	1	4	RunList	2	OfficeSmall	8000	0	674023	0	674023	0	674023	0	F5OfficeSmallBlockProc	n/a	n/a	n/a	n/a	n/a	n/a	n/a	n/a	n/a	n/a	n/a	n/a	2.0	1.0	2.0	Run5BlockList	5	n/a	n/a	n/a	n/a	n/a	n/a	n/a	n/a	n/a	n/a	n/a	n/a	n/a	n/a	n/a	n/a	n/a	n/a	n/a	n/a	n/a	n/a	n/a	n/a	n/a	n/a	n/a	n/a	n/a	n/a	n/a	n/a	n/a	n/a	n/a	n/a	n/a	n/a	n/a	n/a	n/a	n/a	n/a	n/a	n/a	n/a	n/a	n/a	n/a	n/a	n/a	n/a	n/a	n/a	n/a	n/a	n/a	n/a	n/a	n/a	n/a	n/a	n/a	n/a	n/a	n/a	n/a	n/a	n/a	n/a	n/a	n/a	n/a	n/a	n/a	n/a	n/a	n/a	n/a	n/a	n/a	n/a	n/a	n/a	n/a	n/a	n/a	5.0	1.0	5.0	F5_05.jpg	500	0	670523	0	670523	0	TrialProc1	F5OfficeSmallBlockList	2500	0	668023	0	668023	0	668023	2500	c	2341	670364	42.0
45	2.5	000_R01_VA_allProc	94	1	"<?xml version=""1.0""?>\n<Clock xmlns:dt=""urn:schemas-microsoft-com:datatypes""><Description dt:dt=""string"">E-Prime Primary Realtime Clock</Description><StartTime><Timestamp dt:dt=""int"">0</Timestamp><DateUtc dt:dt=""string"">2020-01-27T22:02:22Z</DateUtc></StartTime><FrequencyChanges><FrequencyChange><Frequency dt:dt=""r8"">3020361</Frequency><Timestamp dt:dt=""r8"">62384989500</Timestamp><Current dt:dt=""r8"">0</Current><DateUtc dt:dt=""string"">2020-01-27T22:02:22Z</DateUtc></FrequencyChange></FrequencyChanges></Clock>\n"	000_R01_VA_allProc-94-1	60.0	1.0.0.229	1	-2038944048	Professional	2.0.10.356	2.0.10.356	01-27-2020	n/a	17:02:22	2.0.10.252	4	0	0	626023	13	626023	4000	-999999	803548	0	786672	0	Run5Proc	4	1	4	RunList	2	OfficeSmall	8000	0	674023	0	674023	0	674023	0	F5OfficeSmallBlockProc	n/a	n/a	n/a	n/a	n/a	n/a	n/a	n/a	n/a	n/a	n/a	n/a	2.0	1.0	2.0	Run5BlockList	6	n/a	n/a	n/a	n/a	n/a	n/a	n/a	n/a	n/a	n/a	n/a	n/a	n/a	n/a	n/a	n/a	n/a	n/a	n/a	n/a	n/a	n/a	n/a	n/a	n/a	n/a	n/a	n/a	n/a	n/a	n/a	n/a	n/a	n/a	n/a	n/a	n/a	n/a	n/a	n/a	n/a	n/a	n/a	n/a	n/a	n/a	n/a	n/a	n/a	n/a	n/a	n/a	n/a	n/a	n/a	n/a	n/a	n/a	n/a	n/a	n/a	n/a	n/a	n/a	n/a	n/a	n/a	n/a	n/a	n/a	n/a	n/a	n/a	n/a	n/a	n/a	n/a	n/a	n/a	n/a	n/a	n/a	n/a	n/a	n/a	n/a	n/a	6.0	1.0	6.0	F5_06.jpg	500	0	673523	0	673523	0	TrialProc1	F5OfficeSmallBlockList	2500	0	671023	0	671023	0	671023	2500	c	965	671988	45.0
56	2.5	000_R01_VA_allProc	94	1	"<?xml version=""1.0""?>\n<Clock xmlns:dt=""urn:schemas-microsoft-com:datatypes""><Description dt:dt=""string"">E-Prime Primary Realtime Clock</Description><StartTime><Timestamp dt:dt=""int"">0</Timestamp><DateUtc dt:dt=""string"">2020-01-27T22:02:22Z</DateUtc></StartTime><FrequencyChanges><FrequencyChange><Frequency dt:dt=""r8"">3020361</Frequency><Timestamp dt:dt=""r8"">62384989500</Timestamp><Current dt:dt=""r8"">0</Current><DateUtc dt:dt=""string"">2020-01-27T22:02:22Z</DateUtc></FrequencyChange></FrequencyChanges></Clock>\n"	000_R01_VA_allProc-94-1	60.0	1.0.0.229	1	-2038944048	Professional	2.0.10.356	2.0.10.356	01-27-2020	n/a	17:02:22	2.0.10.252	4	0	0	626023	13	626023	4000	-999999	803548	0	786672	0	Run5Proc	4	1	4	RunList	3	HighSmallED	8000	0	700022	0	700022	0	700022	0	B5HighSmallEDBlockProc	n/a	n/a	n/a	n/a	n/a	n/a	n/a	n/a	n/a	n/a	n/a	n/a	3.0	1.0	3.0	Run5BlockList	1	n/a	n/a	n/a	n/a	n/a	n/a	n/a	n/a	n/a	n/a	n/a	n/a	n/a	n/a	n/a	n/a	n/a	n/a	n/a	n/a	n/a	n/a	n/a	n/a	n/a	n/a	n/a	1.0	1.0	1.0	n/a	n/a	n/a	n/a	n/a	n/a	n/a	n/a	n/a	n/a	n/a	n/a	n/a	n/a	n/a	n/a	n/a	n/a	n/a	n/a	n/a	n/a	n/a	n/a	n/a	n/a	n/a	n/a	n/a	n/a	n/a	n/a	n/a	n/a	n/a	n/a	n/a	n/a	n/a	n/a	n/a	n/a	n/a	n/a	n/a	n/a	n/a	n/a	n/a	n/a	n/a	n/a	n/a	n/a	n/a	n/a	n/a	n/a	n/a	n/a	B5_01.jpg	500	1	684523	0	684522	0	TrialProc1	B5HighSmallEDBlockList	2500	1	682023	1	682023	-1	682022	2500	d	1214	683236	55.999
59	2.5	000_R01_VA_allProc	94	1	"<?xml version=""1.0""?>\n<Clock xmlns:dt=""urn:schemas-microsoft-com:datatypes""><Description dt:dt=""string"">E-Prime Primary Realtime Clock</Description><StartTime><Timestamp dt:dt=""int"">0</Timestamp><DateUtc dt:dt=""string"">2020-01-27T22:02:22Z</DateUtc></StartTime><FrequencyChanges><FrequencyChange><Frequency dt:dt=""r8"">3020361</Frequency><Timestamp dt:dt=""r8"">62384989500</Timestamp><Current dt:dt=""r8"">0</Current><DateUtc dt:dt=""string"">2020-01-27T22:02:22Z</DateUtc></FrequencyChange></FrequencyChanges></Clock>\n"	000_R01_VA_allProc-94-1	60.0	1.0.0.229	1	-2038944048	Professional	2.0.10.356	2.0.10.356	01-27-2020	n/a	17:02:22	2.0.10.252	4	0	0	626023	13	626023	4000	-999999	803548	0	786672	0	Run5Proc	4	1	4	RunList	3	HighSmallED	8000	0	700022	0	700022	0	700022	0	B5HighSmallEDBlockProc	n/a	n/a	n/a	n/a	n/a	n/a	n/a	n/a	n/a	n/a	n/a	n/a	3.0	1.0	3.0	Run5BlockList	2	n/a	n/a	n/a	n/a	n/a	n/a	n/a	n/a	n/a	n/a	n/a	n/a	n/a	n/a	n/a	n/a	n/a	n/a	n/a	n/a	n/a	n/a	n/a	n/a	n/a	n/a	n/a	2.0	1.0	2.0	n/a	n/a	n/a	n/a	n/a	n/a	n/a	n/a	n/a	n/a	n/a	n/a	n/a	n/a	n/a	n/a	n/a	n/a	n/a	n/a	n/a	n/a	n/a	n/a	n/a	n/a	n/a	n/a	n/a	n/a	n/a	n/a	n/a	n/a	n/a	n/a	n/a	n/a	n/a	n/a	n/a	n/a	n/a	n/a	n/a	n/a	n/a	n/a	n/a	n/a	n/a	n/a	n/a	n/a	n/a	n/a	n/a	n/a	n/a	n/a	B5_02.jpg	500	1	687523	0	687522	0	TrialProc1	B5HighSmallEDBlockList	2500	1	685023	1	685023	0	685022	2500	d	1006	686028	58.999
62	2.5	000_R01_VA_allProc	94	1	"<?xml version=""1.0""?>\n<Clock xmlns:dt=""urn:schemas-microsoft-com:datatypes""><Description dt:dt=""string"">E-Prime Primary Realtime Clock</Description><StartTime><Timestamp dt:dt=""int"">0</Timestamp><DateUtc dt:dt=""string"">2020-01-27T22:02:22Z</DateUtc></StartTime><FrequencyChanges><FrequencyChange><Frequency dt:dt=""r8"">3020361</Frequency><Timestamp dt:dt=""r8"">62384989500</Timestamp><Current dt:dt=""r8"">0</Current><DateUtc dt:dt=""string"">2020-01-27T22:02:22Z</DateUtc></FrequencyChange></FrequencyChanges></Clock>\n"	000_R01_VA_allProc-94-1	60.0	1.0.0.229	1	-2038944048	Professional	2.0.10.356	2.0.10.356	01-27-2020	n/a	17:02:22	2.0.10.252	4	0	0	626023	13	626023	4000	-999999	803548	0	786672	0	Run5Proc	4	1	4	RunList	3	HighSmallED	8000	0	700022	0	700022	0	700022	0	B5HighSmallEDBlockProc	n/a	n/a	n/a	n/a	n/a	n/a	n/a	n/a	n/a	n/a	n/a	n/a	3.0	1.0	3.0	Run5BlockList	3	n/a	n/a	n/a	n/a	n/a	n/a	n/a	n/a	n/a	n/a	n/a	n/a	n/a	n/a	n/a	n/a	n/a	n/a	n/a	n/a	n/a	n/a	n/a	n/a	n/a	n/a	n/a	3.0	1.0	3.0	n/a	n/a	n/a	n/a	n/a	n/a	n/a	n/a	n/a	n/a	n/a	n/a	n/a	n/a	n/a	n/a	n/a	n/a	n/a	n/a	n/a	n/a	n/a	n/a	n/a	n/a	n/a	n/a	n/a	n/a	n/a	n/a	n/a	n/a	n/a	n/a	n/a	n/a	n/a	n/a	n/a	n/a	n/a	n/a	n/a	n/a	n/a	n/a	n/a	n/a	n/a	n/a	n/a	n/a	n/a	n/a	n/a	n/a	n/a	n/a	B5_03.jpg	500	1	690523	0	690522	0	TrialProc1	B5HighSmallEDBlockList	2500	1	688023	1	688023	0	688022	2500	d	918	688940	61.999
65	2.5	000_R01_VA_allProc	94	1	"<?xml version=""1.0""?>\n<Clock xmlns:dt=""urn:schemas-microsoft-com:datatypes""><Description dt:dt=""string"">E-Prime Primary Realtime Clock</Description><StartTime><Timestamp dt:dt=""int"">0</Timestamp><DateUtc dt:dt=""string"">2020-01-27T22:02:22Z</DateUtc></StartTime><FrequencyChanges><FrequencyChange><Frequency dt:dt=""r8"">3020361</Frequency><Timestamp dt:dt=""r8"">62384989500</Timestamp><Current dt:dt=""r8"">0</Current><DateUtc dt:dt=""string"">2020-01-27T22:02:22Z</DateUtc></FrequencyChange></FrequencyChanges></Clock>\n"	000_R01_VA_allProc-94-1	60.0	1.0.0.229	1	-2038944048	Professional	2.0.10.356	2.0.10.356	01-27-2020	n/a	17:02:22	2.0.10.252	4	0	0	626023	13	626023	4000	-999999	803548	0	786672	0	Run5Proc	4	1	4	RunList	3	HighSmallED	8000	0	700022	0	700022	0	700022	0	B5HighSmallEDBlockProc	n/a	n/a	n/a	n/a	n/a	n/a	n/a	n/a	n/a	n/a	n/a	n/a	3.0	1.0	3.0	Run5BlockList	4	n/a	n/a	n/a	n/a	n/a	n/a	n/a	n/a	n/a	n/a	n/a	n/a	n/a	n/a	n/a	n/a	n/a	n/a	n/a	n/a	n/a	n/a	n/a	n/a	n/a	n/a	n/a	4.0	1.0	4.0	n/a	n/a	n/a	n/a	n/a	n/a	n/a	n/a	n/a	n/a	n/a	n/a	n/a	n/a	n/a	n/a	n/a	n/a	n/a	n/a	n/a	n/a	n/a	n/a	n/a	n/a	n/a	n/a	n/a	n/a	n/a	n/a	n/a	n/a	n/a	n/a	n/a	n/a	n/a	n/a	n/a	n/a	n/a	n/a	n/a	n/a	n/a	n/a	n/a	n/a	n/a	n/a	n/a	n/a	n/a	n/a	n/a	n/a	n/a	n/a	B5_04.jpg	500	1	693523	0	693522	0	TrialProc1	B5HighSmallEDBlockList	2500	1	691023	1	691023	0	691022	2500	d	918	691940	64.999
68	2.5	000_R01_VA_allProc	94	1	"<?xml version=""1.0""?>\n<Clock xmlns:dt=""urn:schemas-microsoft-com:datatypes""><Description dt:dt=""string"">E-Prime Primary Realtime Clock</Description><StartTime><Timestamp dt:dt=""int"">0</Timestamp><DateUtc dt:dt=""string"">2020-01-27T22:02:22Z</DateUtc></StartTime><FrequencyChanges><FrequencyChange><Frequency dt:dt=""r8"">3020361</Frequency><Timestamp dt:dt=""r8"">62384989500</Timestamp><Current dt:dt=""r8"">0</Current><DateUtc dt:dt=""string"">2020-01-27T22:02:22Z</DateUtc></FrequencyChange></FrequencyChanges></Clock>\n"	000_R01_VA_allProc-94-1	60.0	1.0.0.229	1	-2038944048	Professional	2.0.10.356	2.0.10.356	01-27-2020	n/a	17:02:22	2.0.10.252	4	0	0	626023	13	626023	4000	-999999	803548	0	786672	0	Run5Proc	4	1	4	RunList	3	HighSmallED	8000	0	700022	0	700022	0	700022	0	B5HighSmallEDBlockProc	n/a	n/a	n/a	n/a	n/a	n/a	n/a	n/a	n/a	n/a	n/a	n/a	3.0	1.0	3.0	Run5BlockList	5	n/a	n/a	n/a	n/a	n/a	n/a	n/a	n/a	n/a	n/a	n/a	n/a	n/a	n/a	n/a	n/a	n/a	n/a	n/a	n/a	n/a	n/a	n/a	n/a	n/a	n/a	n/a	5.0	1.0	5.0	n/a	n/a	n/a	n/a	n/a	n/a	n/a	n/a	n/a	n/a	n/a	n/a	n/a	n/a	n/a	n/a	n/a	n/a	n/a	n/a	n/a	n/a	n/a	n/a	n/a	n/a	n/a	n/a	n/a	n/a	n/a	n/a	n/a	n/a	n/a	n/a	n/a	n/a	n/a	n/a	n/a	n/a	n/a	n/a	n/a	n/a	n/a	n/a	n/a	n/a	n/a	n/a	n/a	n/a	n/a	n/a	n/a	n/a	n/a	n/a	B5_05.jpg	500	0	696522	0	696522	0	TrialProc1	B5HighSmallEDBlockList	2500	0	694023	0	694022	0	694022	2500	d	150	694172	67.999
71	2.5	000_R01_VA_allProc	94	1	"<?xml version=""1.0""?>\n<Clock xmlns:dt=""urn:schemas-microsoft-com:datatypes""><Description dt:dt=""string"">E-Prime Primary Realtime Clock</Description><StartTime><Timestamp dt:dt=""int"">0</Timestamp><DateUtc dt:dt=""string"">2020-01-27T22:02:22Z</DateUtc></StartTime><FrequencyChanges><FrequencyChange><Frequency dt:dt=""r8"">3020361</Frequency><Timestamp dt:dt=""r8"">62384989500</Timestamp><Current dt:dt=""r8"">0</Current><DateUtc dt:dt=""string"">2020-01-27T22:02:22Z</DateUtc></FrequencyChange></FrequencyChanges></Clock>\n"	000_R01_VA_allProc-94-1	60.0	1.0.0.229	1	-2038944048	Professional	2.0.10.356	2.0.10.356	01-27-2020	n/a	17:02:22	2.0.10.252	4	0	0	626023	13	626023	4000	-999999	803548	0	786672	0	Run5Proc	4	1	4	RunList	3	HighSmallED	8000	0	700022	0	700022	0	700022	0	B5HighSmallEDBlockProc	n/a	n/a	n/a	n/a	n/a	n/a	n/a	n/a	n/a	n/a	n/a	n/a	3.0	1.0	3.0	Run5BlockList	6	n/a	n/a	n/a	n/a	n/a	n/a	n/a	n/a	n/a	n/a	n/a	n/a	n/a	n/a	n/a	n/a	n/a	n/a	n/a	n/a	n/a	n/a	n/a	n/a	n/a	n/a	n/a	6.0	1.0	6.0	n/a	n/a	n/a	n/a	n/a	n/a	n/a	n/a	n/a	n/a	n/a	n/a	n/a	n/a	n/a	n/a	n/a	n/a	n/a	n/a	n/a	n/a	n/a	n/a	n/a	n/a	n/a	n/a	n/a	n/a	n/a	n/a	n/a	n/a	n/a	n/a	n/a	n/a	n/a	n/a	n/a	n/a	n/a	n/a	n/a	n/a	n/a	n/a	n/a	n/a	n/a	n/a	n/a	n/a	n/a	n/a	n/a	n/a	n/a	n/a	B5_06.jpg	500	0	699522	0	699522	0	TrialProc1	B5HighSmallEDBlockList	2500	0	697023	0	697022	0	697022	2500	d	718	697740	70.999
82	2.5	000_R01_VA_allProc	94	1	"<?xml version=""1.0""?>\n<Clock xmlns:dt=""urn:schemas-microsoft-com:datatypes""><Description dt:dt=""string"">E-Prime Primary Realtime Clock</Description><StartTime><Timestamp dt:dt=""int"">0</Timestamp><DateUtc dt:dt=""string"">2020-01-27T22:02:22Z</DateUtc></StartTime><FrequencyChanges><FrequencyChange><Frequency dt:dt=""r8"">3020361</Frequency><Timestamp dt:dt=""r8"">62384989500</Timestamp><Current dt:dt=""r8"">0</Current><DateUtc dt:dt=""string"">2020-01-27T22:02:22Z</DateUtc></FrequencyChange></FrequencyChanges></Clock>\n"	000_R01_VA_allProc-94-1	60.0	1.0.0.229	1	-2038944048	Professional	2.0.10.356	2.0.10.356	01-27-2020	n/a	17:02:22	2.0.10.252	4	0	0	626023	13	626023	4000	-999999	803548	0	786672	0	Run5Proc	4	1	4	RunList	4	OfficeLarge	8000	0	726022	0	726022	0	726022	0	E5OfficeLargeBlockProc	n/a	n/a	n/a	n/a	n/a	n/a	n/a	n/a	n/a	n/a	n/a	n/a	4.0	1.0	4.0	Run5BlockList	1	n/a	n/a	n/a	n/a	n/a	n/a	n/a	n/a	n/a	n/a	n/a	n/a	n/a	n/a	n/a	n/a	n/a	n/a	n/a	n/a	n/a	n/a	n/a	n/a	n/a	n/a	n/a	n/a	n/a	n/a	n/a	n/a	n/a	n/a	n/a	n/a	n/a	n/a	n/a	n/a	n/a	n/a	n/a	n/a	n/a	n/a	n/a	n/a	n/a	n/a	n/a	n/a	n/a	n/a	n/a	n/a	n/a	n/a	n/a	n/a	n/a	n/a	n/a	n/a	n/a	n/a	n/a	n/a	n/a	n/a	n/a	n/a	1.0	1.0	1.0	n/a	n/a	n/a	n/a	n/a	n/a	n/a	n/a	n/a	n/a	n/a	n/a	n/a	n/a	n/a	E5_01.jpg	500	0	710522	0	710522	0	TrialProc1	E5OfficeLargeBlockList	2500	0	708022	0	708022	0	708022	2500	c	1414	709436	81.999
85	2.5	000_R01_VA_allProc	94	1	"<?xml version=""1.0""?>\n<Clock xmlns:dt=""urn:schemas-microsoft-com:datatypes""><Description dt:dt=""string"">E-Prime Primary Realtime Clock</Description><StartTime><Timestamp dt:dt=""int"">0</Timestamp><DateUtc dt:dt=""string"">2020-01-27T22:02:22Z</DateUtc></StartTime><FrequencyChanges><FrequencyChange><Frequency dt:dt=""r8"">3020361</Frequency><Timestamp dt:dt=""r8"">62384989500</Timestamp><Current dt:dt=""r8"">0</Current><DateUtc dt:dt=""string"">2020-01-27T22:02:22Z</DateUtc></FrequencyChange></FrequencyChanges></Clock>\n"	000_R01_VA_allProc-94-1	60.0	1.0.0.229	1	-2038944048	Professional	2.0.10.356	2.0.10.356	01-27-2020	n/a	17:02:22	2.0.10.252	4	0	0	626023	13	626023	4000	-999999	803548	0	786672	0	Run5Proc	4	1	4	RunList	4	OfficeLarge	8000	0	726022	0	726022	0	726022	0	E5OfficeLargeBlockProc	n/a	n/a	n/a	n/a	n/a	n/a	n/a	n/a	n/a	n/a	n/a	n/a	4.0	1.0	4.0	Run5BlockList	2	n/a	n/a	n/a	n/a	n/a	n/a	n/a	n/a	n/a	n/a	n/a	n/a	n/a	n/a	n/a	n/a	n/a	n/a	n/a	n/a	n/a	n/a	n/a	n/a	n/a	n/a	n/a	n/a	n/a	n/a	n/a	n/a	n/a	n/a	n/a	n/a	n/a	n/a	n/a	n/a	n/a	n/a	n/a	n/a	n/a	n/a	n/a	n/a	n/a	n/a	n/a	n/a	n/a	n/a	n/a	n/a	n/a	n/a	n/a	n/a	n/a	n/a	n/a	n/a	n/a	n/a	n/a	n/a	n/a	n/a	n/a	n/a	2.0	1.0	2.0	n/a	n/a	n/a	n/a	n/a	n/a	n/a	n/a	n/a	n/a	n/a	n/a	n/a	n/a	n/a	E5_02.jpg	500	0	713522	0	713522	0	TrialProc1	E5OfficeLargeBlockList	2500	0	711022	0	711022	0	711022	2500	d	982	712004	84.999
88	2.5	000_R01_VA_allProc	94	1	"<?xml version=""1.0""?>\n<Clock xmlns:dt=""urn:schemas-microsoft-com:datatypes""><Description dt:dt=""string"">E-Prime Primary Realtime Clock</Description><StartTime><Timestamp dt:dt=""int"">0</Timestamp><DateUtc dt:dt=""string"">2020-01-27T22:02:22Z</DateUtc></StartTime><FrequencyChanges><FrequencyChange><Frequency dt:dt=""r8"">3020361</Frequency><Timestamp dt:dt=""r8"">62384989500</Timestamp><Current dt:dt=""r8"">0</Current><DateUtc dt:dt=""string"">2020-01-27T22:02:22Z</DateUtc></FrequencyChange></FrequencyChanges></Clock>\n"	000_R01_VA_allProc-94-1	60.0	1.0.0.229	1	-2038944048	Professional	2.0.10.356	2.0.10.356	01-27-2020	n/a	17:02:22	2.0.10.252	4	0	0	626023	13	626023	4000	-999999	803548	0	786672	0	Run5Proc	4	1	4	RunList	4	OfficeLarge	8000	0	726022	0	726022	0	726022	0	E5OfficeLargeBlockProc	n/a	n/a	n/a	n/a	n/a	n/a	n/a	n/a	n/a	n/a	n/a	n/a	4.0	1.0	4.0	Run5BlockList	3	n/a	n/a	n/a	n/a	n/a	n/a	n/a	n/a	n/a	n/a	n/a	n/a	n/a	n/a	n/a	n/a	n/a	n/a	n/a	n/a	n/a	n/a	n/a	n/a	n/a	n/a	n/a	n/a	n/a	n/a	n/a	n/a	n/a	n/a	n/a	n/a	n/a	n/a	n/a	n/a	n/a	n/a	n/a	n/a	n/a	n/a	n/a	n/a	n/a	n/a	n/a	n/a	n/a	n/a	n/a	n/a	n/a	n/a	n/a	n/a	n/a	n/a	n/a	n/a	n/a	n/a	n/a	n/a	n/a	n/a	n/a	n/a	3.0	1.0	3.0	n/a	n/a	n/a	n/a	n/a	n/a	n/a	n/a	n/a	n/a	n/a	n/a	n/a	n/a	n/a	E5_03.jpg	500	0	716522	0	716522	0	TrialProc1	E5OfficeLargeBlockList	2500	0	714022	0	714022	0	714022	2500	c	1694	715716	87.999
91	2.5	000_R01_VA_allProc	94	1	"<?xml version=""1.0""?>\n<Clock xmlns:dt=""urn:schemas-microsoft-com:datatypes""><Description dt:dt=""string"">E-Prime Primary Realtime Clock</Description><StartTime><Timestamp dt:dt=""int"">0</Timestamp><DateUtc dt:dt=""string"">2020-01-27T22:02:22Z</DateUtc></StartTime><FrequencyChanges><FrequencyChange><Frequency dt:dt=""r8"">3020361</Frequency><Timestamp dt:dt=""r8"">62384989500</Timestamp><Current dt:dt=""r8"">0</Current><DateUtc dt:dt=""string"">2020-01-27T22:02:22Z</DateUtc></FrequencyChange></FrequencyChanges></Clock>\n"	000_R01_VA_allProc-94-1	60.0	1.0.0.229	1	-2038944048	Professional	2.0.10.356	2.0.10.356	01-27-2020	n/a	17:02:22	2.0.10.252	4	0	0	626023	13	626023	4000	-999999	803548	0	786672	0	Run5Proc	4	1	4	RunList	4	OfficeLarge	8000	0	726022	0	726022	0	726022	0	E5OfficeLargeBlockProc	n/a	n/a	n/a	n/a	n/a	n/a	n/a	n/a	n/a	n/a	n/a	n/a	4.0	1.0	4.0	Run5BlockList	4	n/a	n/a	n/a	n/a	n/a	n/a	n/a	n/a	n/a	n/a	n/a	n/a	n/a	n/a	n/a	n/a	n/a	n/a	n/a	n/a	n/a	n/a	n/a	n/a	n/a	n/a	n/a	n/a	n/a	n/a	n/a	n/a	n/a	n/a	n/a	n/a	n/a	n/a	n/a	n/a	n/a	n/a	n/a	n/a	n/a	n/a	n/a	n/a	n/a	n/a	n/a	n/a	n/a	n/a	n/a	n/a	n/a	n/a	n/a	n/a	n/a	n/a	n/a	n/a	n/a	n/a	n/a	n/a	n/a	n/a	n/a	n/a	4.0	1.0	4.0	n/a	n/a	n/a	n/a	n/a	n/a	n/a	n/a	n/a	n/a	n/a	n/a	n/a	n/a	n/a	E5_04.jpg	500	0	719522	0	719522	0	TrialProc1	E5OfficeLargeBlockList	2500	0	717022	0	717022	0	717022	2500	d	1238	718260	90.999
94	2.5	000_R01_VA_allProc	94	1	"<?xml version=""1.0""?>\n<Clock xmlns:dt=""urn:schemas-microsoft-com:datatypes""><Description dt:dt=""string"">E-Prime Primary Realtime Clock</Description><StartTime><Timestamp dt:dt=""int"">0</Timestamp><DateUtc dt:dt=""string"">2020-01-27T22:02:22Z</DateUtc></StartTime><FrequencyChanges><FrequencyChange><Frequency dt:dt=""r8"">3020361</Frequency><Timestamp dt:dt=""r8"">62384989500</Timestamp><Current dt:dt=""r8"">0</Current><DateUtc dt:dt=""string"">2020-01-27T22:02:22Z</DateUtc></FrequencyChange></FrequencyChanges></Clock>\n"	000_R01_VA_allProc-94-1	60.0	1.0.0.229	1	-2038944048	Professional	2.0.10.356	2.0.10.356	01-27-2020	n/a	17:02:22	2.0.10.252	4	0	0	626023	13	626023	4000	-999999	803548	0	786672	0	Run5Proc	4	1	4	RunList	4	OfficeLarge	8000	0	726022	0	726022	0	726022	0	E5OfficeLargeBlockProc	n/a	n/a	n/a	n/a	n/a	n/a	n/a	n/a	n/a	n/a	n/a	n/a	4.0	1.0	4.0	Run5BlockList	5	n/a	n/a	n/a	n/a	n/a	n/a	n/a	n/a	n/a	n/a	n/a	n/a	n/a	n/a	n/a	n/a	n/a	n/a	n/a	n/a	n/a	n/a	n/a	n/a	n/a	n/a	n/a	n/a	n/a	n/a	n/a	n/a	n/a	n/a	n/a	n/a	n/a	n/a	n/a	n/a	n/a	n/a	n/a	n/a	n/a	n/a	n/a	n/a	n/a	n/a	n/a	n/a	n/a	n/a	n/a	n/a	n/a	n/a	n/a	n/a	n/a	n/a	n/a	n/a	n/a	n/a	n/a	n/a	n/a	n/a	n/a	n/a	5.0	1.0	5.0	n/a	n/a	n/a	n/a	n/a	n/a	n/a	n/a	n/a	n/a	n/a	n/a	n/a	n/a	n/a	E5_05.jpg	500	0	722522	0	722522	0	TrialProc1	E5OfficeLargeBlockList	2500	0	720022	0	720022	0	720022	2500	n/a	0	0	93.999
97	2.5	000_R01_VA_allProc	94	1	"<?xml version=""1.0""?>\n<Clock xmlns:dt=""urn:schemas-microsoft-com:datatypes""><Description dt:dt=""string"">E-Prime Primary Realtime Clock</Description><StartTime><Timestamp dt:dt=""int"">0</Timestamp><DateUtc dt:dt=""string"">2020-01-27T22:02:22Z</DateUtc></StartTime><FrequencyChanges><FrequencyChange><Frequency dt:dt=""r8"">3020361</Frequency><Timestamp dt:dt=""r8"">62384989500</Timestamp><Current dt:dt=""r8"">0</Current><DateUtc dt:dt=""string"">2020-01-27T22:02:22Z</DateUtc></FrequencyChange></FrequencyChanges></Clock>\n"	000_R01_VA_allProc-94-1	60.0	1.0.0.229	1	-2038944048	Professional	2.0.10.356	2.0.10.356	01-27-2020	n/a	17:02:22	2.0.10.252	4	0	0	626023	13	626023	4000	-999999	803548	0	786672	0	Run5Proc	4	1	4	RunList	4	OfficeLarge	8000	0	726022	0	726022	0	726022	0	E5OfficeLargeBlockProc	n/a	n/a	n/a	n/a	n/a	n/a	n/a	n/a	n/a	n/a	n/a	n/a	4.0	1.0	4.0	Run5BlockList	6	n/a	n/a	n/a	n/a	n/a	n/a	n/a	n/a	n/a	n/a	n/a	n/a	n/a	n/a	n/a	n/a	n/a	n/a	n/a	n/a	n/a	n/a	n/a	n/a	n/a	n/a	n/a	n/a	n/a	n/a	n/a	n/a	n/a	n/a	n/a	n/a	n/a	n/a	n/a	n/a	n/a	n/a	n/a	n/a	n/a	n/a	n/a	n/a	n/a	n/a	n/a	n/a	n/a	n/a	n/a	n/a	n/a	n/a	n/a	n/a	n/a	n/a	n/a	n/a	n/a	n/a	n/a	n/a	n/a	n/a	n/a	n/a	6.0	1.0	6.0	n/a	n/a	n/a	n/a	n/a	n/a	n/a	n/a	n/a	n/a	n/a	n/a	n/a	n/a	n/a	E5_06.jpg	500	0	725522	0	725522	0	TrialProc1	E5OfficeLargeBlockList	2500	0	723022	0	723022	0	723022	2500	c	1630	724652	96.999
108	2.5	000_R01_VA_allProc	94	1	"<?xml version=""1.0""?>\n<Clock xmlns:dt=""urn:schemas-microsoft-com:datatypes""><Description dt:dt=""string"">E-Prime Primary Realtime Clock</Description><StartTime><Timestamp dt:dt=""int"">0</Timestamp><DateUtc dt:dt=""string"">2020-01-27T22:02:22Z</DateUtc></StartTime><FrequencyChanges><FrequencyChange><Frequency dt:dt=""r8"">3020361</Frequency><Timestamp dt:dt=""r8"">62384989500</Timestamp><Current dt:dt=""r8"">0</Current><DateUtc dt:dt=""string"">2020-01-27T22:02:22Z</DateUtc></FrequencyChange></FrequencyChanges></Clock>\n"	000_R01_VA_allProc-94-1	60.0	1.0.0.229	1	-2038944048	Professional	2.0.10.356	2.0.10.356	01-27-2020	n/a	17:02:22	2.0.10.252	4	0	0	626023	13	626023	4000	-999999	803548	0	786672	0	Run5Proc	4	1	4	RunList	5	HighLargeED	8000	0	752672	0	752672	0	752672	0	A5HighLargeEDBlockProc	n/a	n/a	n/a	n/a	n/a	n/a	n/a	n/a	n/a	n/a	n/a	n/a	5.0	1.0	5.0	Run5BlockList	1	n/a	n/a	n/a	n/a	n/a	n/a	n/a	n/a	n/a	n/a	n/a	n/a	1.0	1.0	1.0	n/a	n/a	n/a	n/a	n/a	n/a	n/a	n/a	n/a	n/a	n/a	n/a	n/a	n/a	n/a	n/a	n/a	n/a	n/a	n/a	n/a	n/a	n/a	n/a	n/a	n/a	n/a	n/a	n/a	n/a	n/a	n/a	n/a	n/a	n/a	n/a	n/a	n/a	n/a	n/a	n/a	n/a	n/a	n/a	n/a	n/a	n/a	n/a	n/a	n/a	n/a	n/a	n/a	n/a	n/a	n/a	n/a	n/a	n/a	n/a	n/a	n/a	n/a	n/a	n/a	n/a	n/a	n/a	n/a	n/a	n/a	n/a	n/a	n/a	n/a	A5_01.jpg	500	0	736522	0	736522	0	TrialProc1	A5HighLargeEDBlockList	2500	0	734022	0	734022	0	734022	2500	d	1118	735140	107.999
111	2.5	000_R01_VA_allProc	94	1	"<?xml version=""1.0""?>\n<Clock xmlns:dt=""urn:schemas-microsoft-com:datatypes""><Description dt:dt=""string"">E-Prime Primary Realtime Clock</Description><StartTime><Timestamp dt:dt=""int"">0</Timestamp><DateUtc dt:dt=""string"">2020-01-27T22:02:22Z</DateUtc></StartTime><FrequencyChanges><FrequencyChange><Frequency dt:dt=""r8"">3020361</Frequency><Timestamp dt:dt=""r8"">62384989500</Timestamp><Current dt:dt=""r8"">0</Current><DateUtc dt:dt=""string"">2020-01-27T22:02:22Z</DateUtc></FrequencyChange></FrequencyChanges></Clock>\n"	000_R01_VA_allProc-94-1	60.0	1.0.0.229	1	-2038944048	Professional	2.0.10.356	2.0.10.356	01-27-2020	n/a	17:02:22	2.0.10.252	4	0	0	626023	13	626023	4000	-999999	803548	0	786672	0	Run5Proc	4	1	4	RunList	5	HighLargeED	8000	0	752672	0	752672	0	752672	0	A5HighLargeEDBlockProc	n/a	n/a	n/a	n/a	n/a	n/a	n/a	n/a	n/a	n/a	n/a	n/a	5.0	1.0	5.0	Run5BlockList	2	n/a	n/a	n/a	n/a	n/a	n/a	n/a	n/a	n/a	n/a	n/a	n/a	2.0	1.0	2.0	n/a	n/a	n/a	n/a	n/a	n/a	n/a	n/a	n/a	n/a	n/a	n/a	n/a	n/a	n/a	n/a	n/a	n/a	n/a	n/a	n/a	n/a	n/a	n/a	n/a	n/a	n/a	n/a	n/a	n/a	n/a	n/a	n/a	n/a	n/a	n/a	n/a	n/a	n/a	n/a	n/a	n/a	n/a	n/a	n/a	n/a	n/a	n/a	n/a	n/a	n/a	n/a	n/a	n/a	n/a	n/a	n/a	n/a	n/a	n/a	n/a	n/a	n/a	n/a	n/a	n/a	n/a	n/a	n/a	n/a	n/a	n/a	n/a	n/a	n/a	A5_02.jpg	500	0	739522	0	739522	0	TrialProc1	A5HighLargeEDBlockList	2500	0	737022	0	737022	0	737022	2500	d	670	737692	110.999
115	2.5	000_R01_VA_allProc	94	1	"<?xml version=""1.0""?>\n<Clock xmlns:dt=""urn:schemas-microsoft-com:datatypes""><Description dt:dt=""string"">E-Prime Primary Realtime Clock</Description><StartTime><Timestamp dt:dt=""int"">0</Timestamp><DateUtc dt:dt=""string"">2020-01-27T22:02:22Z</DateUtc></StartTime><FrequencyChanges><FrequencyChange><Frequency dt:dt=""r8"">3020361</Frequency><Timestamp dt:dt=""r8"">62384989500</Timestamp><Current dt:dt=""r8"">0</Current><DateUtc dt:dt=""string"">2020-01-27T22:02:22Z</DateUtc></FrequencyChange></FrequencyChanges></Clock>\n"	000_R01_VA_allProc-94-1	60.0	1.0.0.229	1	-2038944048	Professional	2.0.10.356	2.0.10.356	01-27-2020	n/a	17:02:22	2.0.10.252	4	0	0	626023	13	626023	4000	-999999	803548	0	786672	0	Run5Proc	4	1	4	RunList	5	HighLargeED	8000	0	752672	0	752672	0	752672	0	A5HighLargeEDBlockProc	n/a	n/a	n/a	n/a	n/a	n/a	n/a	n/a	n/a	n/a	n/a	n/a	5.0	1.0	5.0	Run5BlockList	3	n/a	n/a	n/a	n/a	n/a	n/a	n/a	n/a	n/a	n/a	n/a	n/a	3.0	1.0	3.0	n/a	n/a	n/a	n/a	n/a	n/a	n/a	n/a	n/a	n/a	n/a	n/a	n/a	n/a	n/a	n/a	n/a	n/a	n/a	n/a	n/a	n/a	n/a	n/a	n/a	n/a	n/a	n/a	n/a	n/a	n/a	n/a	n/a	n/a	n/a	n/a	n/a	n/a	n/a	n/a	n/a	n/a	n/a	n/a	n/a	n/a	n/a	n/a	n/a	n/a	n/a	n/a	n/a	n/a	n/a	n/a	n/a	n/a	n/a	n/a	n/a	n/a	n/a	n/a	n/a	n/a	n/a	n/a	n/a	n/a	n/a	n/a	n/a	n/a	n/a	A5_03.jpg	500	0	743172	0	743172	0	TrialProc1	A5HighLargeEDBlockList	2500	0	740672	0	740672	650	740672	2500	d	868	741540	114.649
118	2.5	000_R01_VA_allProc	94	1	"<?xml version=""1.0""?>\n<Clock xmlns:dt=""urn:schemas-microsoft-com:datatypes""><Description dt:dt=""string"">E-Prime Primary Realtime Clock</Description><StartTime><Timestamp dt:dt=""int"">0</Timestamp><DateUtc dt:dt=""string"">2020-01-27T22:02:22Z</DateUtc></StartTime><FrequencyChanges><FrequencyChange><Frequency dt:dt=""r8"">3020361</Frequency><Timestamp dt:dt=""r8"">62384989500</Timestamp><Current dt:dt=""r8"">0</Current><DateUtc dt:dt=""string"">2020-01-27T22:02:22Z</DateUtc></FrequencyChange></FrequencyChanges></Clock>\n"	000_R01_VA_allProc-94-1	60.0	1.0.0.229	1	-2038944048	Professional	2.0.10.356	2.0.10.356	01-27-2020	n/a	17:02:22	2.0.10.252	4	0	0	626023	13	626023	4000	-999999	803548	0	786672	0	Run5Proc	4	1	4	RunList	5	HighLargeED	8000	0	752672	0	752672	0	752672	0	A5HighLargeEDBlockProc	n/a	n/a	n/a	n/a	n/a	n/a	n/a	n/a	n/a	n/a	n/a	n/a	5.0	1.0	5.0	Run5BlockList	4	n/a	n/a	n/a	n/a	n/a	n/a	n/a	n/a	n/a	n/a	n/a	n/a	4.0	1.0	4.0	n/a	n/a	n/a	n/a	n/a	n/a	n/a	n/a	n/a	n/a	n/a	n/a	n/a	n/a	n/a	n/a	n/a	n/a	n/a	n/a	n/a	n/a	n/a	n/a	n/a	n/a	n/a	n/a	n/a	n/a	n/a	n/a	n/a	n/a	n/a	n/a	n/a	n/a	n/a	n/a	n/a	n/a	n/a	n/a	n/a	n/a	n/a	n/a	n/a	n/a	n/a	n/a	n/a	n/a	n/a	n/a	n/a	n/a	n/a	n/a	n/a	n/a	n/a	n/a	n/a	n/a	n/a	n/a	n/a	n/a	n/a	n/a	n/a	n/a	n/a	A5_04.jpg	500	0	746172	0	746172	0	TrialProc1	A5HighLargeEDBlockList	2500	0	743672	0	743672	0	743672	2500	d	924	744596	117.649
121	2.5	000_R01_VA_allProc	94	1	"<?xml version=""1.0""?>\n<Clock xmlns:dt=""urn:schemas-microsoft-com:datatypes""><Description dt:dt=""string"">E-Prime Primary Realtime Clock</Description><StartTime><Timestamp dt:dt=""int"">0</Timestamp><DateUtc dt:dt=""string"">2020-01-27T22:02:22Z</DateUtc></StartTime><FrequencyChanges><FrequencyChange><Frequency dt:dt=""r8"">3020361</Frequency><Timestamp dt:dt=""r8"">62384989500</Timestamp><Current dt:dt=""r8"">0</Current><DateUtc dt:dt=""string"">2020-01-27T22:02:22Z</DateUtc></FrequencyChange></FrequencyChanges></Clock>\n"	000_R01_VA_allProc-94-1	60.0	1.0.0.229	1	-2038944048	Professional	2.0.10.356	2.0.10.356	01-27-2020	n/a	17:02:22	2.0.10.252	4	0	0	626023	13	626023	4000	-999999	803548	0	786672	0	Run5Proc	4	1	4	RunList	5	HighLargeED	8000	0	752672	0	752672	0	752672	0	A5HighLargeEDBlockProc	n/a	n/a	n/a	n/a	n/a	n/a	n/a	n/a	n/a	n/a	n/a	n/a	5.0	1.0	5.0	Run5BlockList	5	n/a	n/a	n/a	n/a	n/a	n/a	n/a	n/a	n/a	n/a	n/a	n/a	5.0	1.0	5.0	n/a	n/a	n/a	n/a	n/a	n/a	n/a	n/a	n/a	n/a	n/a	n/a	n/a	n/a	n/a	n/a	n/a	n/a	n/a	n/a	n/a	n/a	n/a	n/a	n/a	n/a	n/a	n/a	n/a	n/a	n/a	n/a	n/a	n/a	n/a	n/a	n/a	n/a	n/a	n/a	n/a	n/a	n/a	n/a	n/a	n/a	n/a	n/a	n/a	n/a	n/a	n/a	n/a	n/a	n/a	n/a	n/a	n/a	n/a	n/a	n/a	n/a	n/a	n/a	n/a	n/a	n/a	n/a	n/a	n/a	n/a	n/a	n/a	n/a	n/a	A5_05.jpg	500	0	749172	0	749172	0	TrialProc1	A5HighLargeEDBlockList	2500	0	746672	0	746672	0	746672	2500	d	788	747460	120.649
124	2.5	000_R01_VA_allProc	94	1	"<?xml version=""1.0""?>\n<Clock xmlns:dt=""urn:schemas-microsoft-com:datatypes""><Description dt:dt=""string"">E-Prime Primary Realtime Clock</Description><StartTime><Timestamp dt:dt=""int"">0</Timestamp><DateUtc dt:dt=""string"">2020-01-27T22:02:22Z</DateUtc></StartTime><FrequencyChanges><FrequencyChange><Frequency dt:dt=""r8"">3020361</Frequency><Timestamp dt:dt=""r8"">62384989500</Timestamp><Current dt:dt=""r8"">0</Current><DateUtc dt:dt=""string"">2020-01-27T22:02:22Z</DateUtc></FrequencyChange></FrequencyChanges></Clock>\n"	000_R01_VA_allProc-94-1	60.0	1.0.0.229	1	-2038944048	Professional	2.0.10.356	2.0.10.356	01-27-2020	n/a	17:02:22	2.0.10.252	4	0	0	626023	13	626023	4000	-999999	803548	0	786672	0	Run5Proc	4	1	4	RunList	5	HighLargeED	8000	0	752672	0	752672	0	752672	0	A5HighLargeEDBlockProc	n/a	n/a	n/a	n/a	n/a	n/a	n/a	n/a	n/a	n/a	n/a	n/a	5.0	1.0	5.0	Run5BlockList	6	n/a	n/a	n/a	n/a	n/a	n/a	n/a	n/a	n/a	n/a	n/a	n/a	6.0	1.0	6.0	n/a	n/a	n/a	n/a	n/a	n/a	n/a	n/a	n/a	n/a	n/a	n/a	n/a	n/a	n/a	n/a	n/a	n/a	n/a	n/a	n/a	n/a	n/a	n/a	n/a	n/a	n/a	n/a	n/a	n/a	n/a	n/a	n/a	n/a	n/a	n/a	n/a	n/a	n/a	n/a	n/a	n/a	n/a	n/a	n/a	n/a	n/a	n/a	n/a	n/a	n/a	n/a	n/a	n/a	n/a	n/a	n/a	n/a	n/a	n/a	n/a	n/a	n/a	n/a	n/a	n/a	n/a	n/a	n/a	n/a	n/a	n/a	n/a	n/a	n/a	A5_06.jpg	500	0	752172	0	752172	0	TrialProc1	A5HighLargeEDBlockList	2500	0	749672	0	749672	0	749672	2500	d	676	750348	123.649
135	2.5	000_R01_VA_allProc	94	1	"<?xml version=""1.0""?>\n<Clock xmlns:dt=""urn:schemas-microsoft-com:datatypes""><Description dt:dt=""string"">E-Prime Primary Realtime Clock</Description><StartTime><Timestamp dt:dt=""int"">0</Timestamp><DateUtc dt:dt=""string"">2020-01-27T22:02:22Z</DateUtc></StartTime><FrequencyChanges><FrequencyChange><Frequency dt:dt=""r8"">3020361</Frequency><Timestamp dt:dt=""r8"">62384989500</Timestamp><Current dt:dt=""r8"">0</Current><DateUtc dt:dt=""string"">2020-01-27T22:02:22Z</DateUtc></FrequencyChange></FrequencyChanges></Clock>\n"	000_R01_VA_allProc-94-1	60.0	1.0.0.229	1	-2038944048	Professional	2.0.10.356	2.0.10.356	01-27-2020	n/a	17:02:22	2.0.10.252	4	0	0	626023	13	626023	4000	-999999	803548	0	786672	0	Run5Proc	4	1	4	RunList	6	LowSmallED	8000	0	778672	0	778672	0	778672	0	D5LowSmallEDBlockProc	n/a	n/a	n/a	n/a	n/a	n/a	n/a	n/a	n/a	n/a	n/a	n/a	6.0	1.0	6.0	Run5BlockList	1	n/a	n/a	n/a	n/a	n/a	n/a	n/a	n/a	n/a	n/a	n/a	n/a	n/a	n/a	n/a	n/a	n/a	n/a	n/a	n/a	n/a	n/a	n/a	n/a	n/a	n/a	n/a	n/a	n/a	n/a	n/a	n/a	n/a	n/a	n/a	n/a	n/a	n/a	n/a	n/a	n/a	n/a	n/a	n/a	n/a	n/a	n/a	n/a	n/a	n/a	n/a	n/a	n/a	n/a	n/a	n/a	n/a	1.0	1.0	1.0	n/a	n/a	n/a	n/a	n/a	n/a	n/a	n/a	n/a	n/a	n/a	n/a	n/a	n/a	n/a	n/a	n/a	n/a	n/a	n/a	n/a	n/a	n/a	n/a	n/a	n/a	n/a	n/a	n/a	n/a	D5_01.jpg	500	0	763172	0	763172	0	TrialProc1	D5LowSmallEDBlockList	2500	0	760672	0	760672	0	760672	2500	c	1332	762004	134.649
138	2.5	000_R01_VA_allProc	94	1	"<?xml version=""1.0""?>\n<Clock xmlns:dt=""urn:schemas-microsoft-com:datatypes""><Description dt:dt=""string"">E-Prime Primary Realtime Clock</Description><StartTime><Timestamp dt:dt=""int"">0</Timestamp><DateUtc dt:dt=""string"">2020-01-27T22:02:22Z</DateUtc></StartTime><FrequencyChanges><FrequencyChange><Frequency dt:dt=""r8"">3020361</Frequency><Timestamp dt:dt=""r8"">62384989500</Timestamp><Current dt:dt=""r8"">0</Current><DateUtc dt:dt=""string"">2020-01-27T22:02:22Z</DateUtc></FrequencyChange></FrequencyChanges></Clock>\n"	000_R01_VA_allProc-94-1	60.0	1.0.0.229	1	-2038944048	Professional	2.0.10.356	2.0.10.356	01-27-2020	n/a	17:02:22	2.0.10.252	4	0	0	626023	13	626023	4000	-999999	803548	0	786672	0	Run5Proc	4	1	4	RunList	6	LowSmallED	8000	0	778672	0	778672	0	778672	0	D5LowSmallEDBlockProc	n/a	n/a	n/a	n/a	n/a	n/a	n/a	n/a	n/a	n/a	n/a	n/a	6.0	1.0	6.0	Run5BlockList	2	n/a	n/a	n/a	n/a	n/a	n/a	n/a	n/a	n/a	n/a	n/a	n/a	n/a	n/a	n/a	n/a	n/a	n/a	n/a	n/a	n/a	n/a	n/a	n/a	n/a	n/a	n/a	n/a	n/a	n/a	n/a	n/a	n/a	n/a	n/a	n/a	n/a	n/a	n/a	n/a	n/a	n/a	n/a	n/a	n/a	n/a	n/a	n/a	n/a	n/a	n/a	n/a	n/a	n/a	n/a	n/a	n/a	2.0	1.0	2.0	n/a	n/a	n/a	n/a	n/a	n/a	n/a	n/a	n/a	n/a	n/a	n/a	n/a	n/a	n/a	n/a	n/a	n/a	n/a	n/a	n/a	n/a	n/a	n/a	n/a	n/a	n/a	n/a	n/a	n/a	D5_02.jpg	500	0	766172	0	766172	0	TrialProc1	D5LowSmallEDBlockList	2500	0	763672	0	763672	0	763672	2500	c	1404	765076	137.649
141	2.5	000_R01_VA_allProc	94	1	"<?xml version=""1.0""?>\n<Clock xmlns:dt=""urn:schemas-microsoft-com:datatypes""><Description dt:dt=""string"">E-Prime Primary Realtime Clock</Description><StartTime><Timestamp dt:dt=""int"">0</Timestamp><DateUtc dt:dt=""string"">2020-01-27T22:02:22Z</DateUtc></StartTime><FrequencyChanges><FrequencyChange><Frequency dt:dt=""r8"">3020361</Frequency><Timestamp dt:dt=""r8"">62384989500</Timestamp><Current dt:dt=""r8"">0</Current><DateUtc dt:dt=""string"">2020-01-27T22:02:22Z</DateUtc></FrequencyChange></FrequencyChanges></Clock>\n"	000_R01_VA_allProc-94-1	60.0	1.0.0.229	1	-2038944048	Professional	2.0.10.356	2.0.10.356	01-27-2020	n/a	17:02:22	2.0.10.252	4	0	0	626023	13	626023	4000	-999999	803548	0	786672	0	Run5Proc	4	1	4	RunList	6	LowSmallED	8000	0	778672	0	778672	0	778672	0	D5LowSmallEDBlockProc	n/a	n/a	n/a	n/a	n/a	n/a	n/a	n/a	n/a	n/a	n/a	n/a	6.0	1.0	6.0	Run5BlockList	3	n/a	n/a	n/a	n/a	n/a	n/a	n/a	n/a	n/a	n/a	n/a	n/a	n/a	n/a	n/a	n/a	n/a	n/a	n/a	n/a	n/a	n/a	n/a	n/a	n/a	n/a	n/a	n/a	n/a	n/a	n/a	n/a	n/a	n/a	n/a	n/a	n/a	n/a	n/a	n/a	n/a	n/a	n/a	n/a	n/a	n/a	n/a	n/a	n/a	n/a	n/a	n/a	n/a	n/a	n/a	n/a	n/a	3.0	1.0	3.0	n/a	n/a	n/a	n/a	n/a	n/a	n/a	n/a	n/a	n/a	n/a	n/a	n/a	n/a	n/a	n/a	n/a	n/a	n/a	n/a	n/a	n/a	n/a	n/a	n/a	n/a	n/a	n/a	n/a	n/a	D5_03.jpg	500	0	769172	0	769172	0	TrialProc1	D5LowSmallEDBlockList	2500	0	766672	0	766672	0	766672	2500	c	1100	767772	140.649
144	2.5	000_R01_VA_allProc	94	1	"<?xml version=""1.0""?>\n<Clock xmlns:dt=""urn:schemas-microsoft-com:datatypes""><Description dt:dt=""string"">E-Prime Primary Realtime Clock</Description><StartTime><Timestamp dt:dt=""int"">0</Timestamp><DateUtc dt:dt=""string"">2020-01-27T22:02:22Z</DateUtc></StartTime><FrequencyChanges><FrequencyChange><Frequency dt:dt=""r8"">3020361</Frequency><Timestamp dt:dt=""r8"">62384989500</Timestamp><Current dt:dt=""r8"">0</Current><DateUtc dt:dt=""string"">2020-01-27T22:02:22Z</DateUtc></FrequencyChange></FrequencyChanges></Clock>\n"	000_R01_VA_allProc-94-1	60.0	1.0.0.229	1	-2038944048	Professional	2.0.10.356	2.0.10.356	01-27-2020	n/a	17:02:22	2.0.10.252	4	0	0	626023	13	626023	4000	-999999	803548	0	786672	0	Run5Proc	4	1	4	RunList	6	LowSmallED	8000	0	778672	0	778672	0	778672	0	D5LowSmallEDBlockProc	n/a	n/a	n/a	n/a	n/a	n/a	n/a	n/a	n/a	n/a	n/a	n/a	6.0	1.0	6.0	Run5BlockList	4	n/a	n/a	n/a	n/a	n/a	n/a	n/a	n/a	n/a	n/a	n/a	n/a	n/a	n/a	n/a	n/a	n/a	n/a	n/a	n/a	n/a	n/a	n/a	n/a	n/a	n/a	n/a	n/a	n/a	n/a	n/a	n/a	n/a	n/a	n/a	n/a	n/a	n/a	n/a	n/a	n/a	n/a	n/a	n/a	n/a	n/a	n/a	n/a	n/a	n/a	n/a	n/a	n/a	n/a	n/a	n/a	n/a	4.0	1.0	4.0	n/a	n/a	n/a	n/a	n/a	n/a	n/a	n/a	n/a	n/a	n/a	n/a	n/a	n/a	n/a	n/a	n/a	n/a	n/a	n/a	n/a	n/a	n/a	n/a	n/a	n/a	n/a	n/a	n/a	n/a	D5_04.jpg	500	0	772172	0	772172	0	TrialProc1	D5LowSmallEDBlockList	2500	0	769672	0	769672	0	769672	2500	c	1452	771124	143.649
147	2.5	000_R01_VA_allProc	94	1	"<?xml version=""1.0""?>\n<Clock xmlns:dt=""urn:schemas-microsoft-com:datatypes""><Description dt:dt=""string"">E-Prime Primary Realtime Clock</Description><StartTime><Timestamp dt:dt=""int"">0</Timestamp><DateUtc dt:dt=""string"">2020-01-27T22:02:22Z</DateUtc></StartTime><FrequencyChanges><FrequencyChange><Frequency dt:dt=""r8"">3020361</Frequency><Timestamp dt:dt=""r8"">62384989500</Timestamp><Current dt:dt=""r8"">0</Current><DateUtc dt:dt=""string"">2020-01-27T22:02:22Z</DateUtc></FrequencyChange></FrequencyChanges></Clock>\n"	000_R01_VA_allProc-94-1	60.0	1.0.0.229	1	-2038944048	Professional	2.0.10.356	2.0.10.356	01-27-2020	n/a	17:02:22	2.0.10.252	4	0	0	626023	13	626023	4000	-999999	803548	0	786672	0	Run5Proc	4	1	4	RunList	6	LowSmallED	8000	0	778672	0	778672	0	778672	0	D5LowSmallEDBlockProc	n/a	n/a	n/a	n/a	n/a	n/a	n/a	n/a	n/a	n/a	n/a	n/a	6.0	1.0	6.0	Run5BlockList	5	n/a	n/a	n/a	n/a	n/a	n/a	n/a	n/a	n/a	n/a	n/a	n/a	n/a	n/a	n/a	n/a	n/a	n/a	n/a	n/a	n/a	n/a	n/a	n/a	n/a	n/a	n/a	n/a	n/a	n/a	n/a	n/a	n/a	n/a	n/a	n/a	n/a	n/a	n/a	n/a	n/a	n/a	n/a	n/a	n/a	n/a	n/a	n/a	n/a	n/a	n/a	n/a	n/a	n/a	n/a	n/a	n/a	5.0	1.0	5.0	n/a	n/a	n/a	n/a	n/a	n/a	n/a	n/a	n/a	n/a	n/a	n/a	n/a	n/a	n/a	n/a	n/a	n/a	n/a	n/a	n/a	n/a	n/a	n/a	n/a	n/a	n/a	n/a	n/a	n/a	D5_05.jpg	500	0	775172	0	775172	0	TrialProc1	D5LowSmallEDBlockList	2500	0	772672	0	772672	0	772672	2500	d	52	772724	146.649
150	2.5	000_R01_VA_allProc	94	1	"<?xml version=""1.0""?>\n<Clock xmlns:dt=""urn:schemas-microsoft-com:datatypes""><Description dt:dt=""string"">E-Prime Primary Realtime Clock</Description><StartTime><Timestamp dt:dt=""int"">0</Timestamp><DateUtc dt:dt=""string"">2020-01-27T22:02:22Z</DateUtc></StartTime><FrequencyChanges><FrequencyChange><Frequency dt:dt=""r8"">3020361</Frequency><Timestamp dt:dt=""r8"">62384989500</Timestamp><Current dt:dt=""r8"">0</Current><DateUtc dt:dt=""string"">2020-01-27T22:02:22Z</DateUtc></FrequencyChange></FrequencyChanges></Clock>\n"	000_R01_VA_allProc-94-1	60.0	1.0.0.229	1	-2038944048	Professional	2.0.10.356	2.0.10.356	01-27-2020	n/a	17:02:22	2.0.10.252	4	0	0	626023	13	626023	4000	-999999	803548	0	786672	0	Run5Proc	4	1	4	RunList	6	LowSmallED	8000	0	778672	0	778672	0	778672	0	D5LowSmallEDBlockProc	n/a	n/a	n/a	n/a	n/a	n/a	n/a	n/a	n/a	n/a	n/a	n/a	6.0	1.0	6.0	Run5BlockList	6	n/a	n/a	n/a	n/a	n/a	n/a	n/a	n/a	n/a	n/a	n/a	n/a	n/a	n/a	n/a	n/a	n/a	n/a	n/a	n/a	n/a	n/a	n/a	n/a	n/a	n/a	n/a	n/a	n/a	n/a	n/a	n/a	n/a	n/a	n/a	n/a	n/a	n/a	n/a	n/a	n/a	n/a	n/a	n/a	n/a	n/a	n/a	n/a	n/a	n/a	n/a	n/a	n/a	n/a	n/a	n/a	n/a	6.0	1.0	6.0	n/a	n/a	n/a	n/a	n/a	n/a	n/a	n/a	n/a	n/a	n/a	n/a	n/a	n/a	n/a	n/a	n/a	n/a	n/a	n/a	n/a	n/a	n/a	n/a	n/a	n/a	n/a	n/a	n/a	n/a	D5_06.jpg	500	0	778172	0	778172	0	TrialProc1	D5LowSmallEDBlockList	2500	0	775672	0	775672	0	775672	2500	d	76	775748	149.649
