onset	duration	experiment_name	sub	ses	clock_information	datafile_basename	display_refreshrate	experiment_version	group	randomseed	runtime_capabilities	runtime_version	runtimeversionexpected	session_date	session_start_date_time_utc	session_time	studio_version	block	fixation2trs_durationerror	fixation2trs_offsetdelay	fixation2trs_offsettime	fixation2trs_onsetdelay	fixation2trs_onsettime	fixation2trs_onsettoonsettime	goodwork_durationerror	goodwork_finishtime	goodwork_onsetdelay	goodwork_onsettime	goodwork_onsettoonsettime	procedure_block	runlist	runlist_cycle	runlist_sample	running_block	trial	condition	interblockinterval_duration	interblockinterval_durationerror	interblockinterval_finishtime	interblockinterval_offsetdelay	interblockinterval_offsettime	interblockinterval_onsetdelay	interblockinterval_onsettime	interblockinterval_onsettoonsettime	procedure_trial	run1blocklist	run1blocklist_cycle	run1blocklist_sample	run2blocklist	run2blocklist_cycle	run2blocklist_sample	run3blocklist	run3blocklist_cycle	run3blocklist_sample	run4blocklist	run4blocklist_cycle	run4blocklist_sample	run5blocklist	run5blocklist_cycle	run5blocklist_sample	running_trial	subtrial	a1highlargeedblocklist	a1highlargeedblocklist_cycle	a1highlargeedblocklist_sample	a2highlargeedblocklist	a2highlargeedblocklist_cycle	a2highlargeedblocklist_sample	a3highlargeedblocklist	a3highlargeedblocklist_cycle	a3highlargeedblocklist_sample	a4highlargeedblocklist	a4highlargeedblocklist_cycle	a4highlargeedblocklist_sample	a5highlargeedblocklist	a5highlargeedblocklist_cycle	a5highlargeedblocklist_sample	b1highsmalledblocklist	b1highsmalledblocklist_cycle	b1highsmalledblocklist_sample	b2highsmalledblocklist	b2highsmalledblocklist_cycle	b2highsmalledblocklist_sample	b3highsmalledblocklist	b3highsmalledblocklist_cycle	b3highsmalledblocklist_sample	b4highsmalledblocklist	b4highsmalledblocklist_cycle	b4highsmalledblocklist_sample	b5highsmalledblocklist	b5highsmalledblocklist_cycle	b5highsmalledblocklist_sample	c1lowlargeedblocklist	c1lowlargeedblocklist_cycle	c1lowlargeedblocklist_sample	c2lowlargeedblocklist	c2lowlargeedblocklist_cycle	c2lowlargeedblocklist_sample	c3lowlargeedblocklist	c3lowlargeedblocklist_cycle	c3lowlargeedblocklist_sample	c4lowlargeedblocklist	c4lowlargeedblocklist_cycle	c4lowlargeedblocklist_sample	c5lowlargeedblocklist	c5lowlargeedblocklist_cycle	c5lowlargeedblocklist_sample	d1lowsmalledblocklist	d1lowsmalledblocklist_cycle	d1lowsmalledblocklist_sample	d2highlargeedblocklist	d2highlargeedblocklist_cycle	d2highlargeedblocklist_sample	d3lowsmalledblocklist	d3lowsmalledblocklist_cycle	d3lowsmalledblocklist_sample	d4lowsmalledblocklist	d4lowsmalledblocklist_cycle	d4lowsmalledblocklist_sample	d5lowsmalledblocklist	d5lowsmalledblocklist_cycle	d5lowsmalledblocklist_sample	e1officelargeblocklist	e1officelargeblocklist_cycle	e1officelargeblocklist_sample	e2officelargeblocklist	e2officelargeblocklist_cycle	e2officelargeblocklist_sample	e3officelargeblocklist	e3officelargeblocklist_cycle	e3officelargeblocklist_sample	e4officelargeblocklist	e4officelargeblocklist_cycle	e4officelargeblocklist_sample	e5officelargeblocklist	e5officelargeblocklist_cycle	e5officelargeblocklist_sample	f1officesmallblocklist	f1officesmallblocklist_cycle	f1officesmallblocklist_sample	f2officesmallblocklist	f2officesmallblocklist_cycle	f2officesmallblocklist_sample	f3officesmallblocklist	f3officesmallblocklist_cycle	f3officesmallblocklist_sample	f4officesmallblocklist	f4officesmallblocklist_cycle	f4officesmallblocklist_sample	f5officesmallblocklist	f5officesmallblocklist_cycle	f5officesmallblocklist_sample	filename	isi_duration	isi_durationerror	isi_finishtime	isi_onsetdelay	isi_onsettime	isi_onsettoonsettime	procedure_subtrial	running_subtrial	stimslide_duration	stimslide_durationerror	stimslide_finishtime	stimslide_offsetdelay	stimslide_offsettime	stimslide_onsetdelay	stimslide_onsettime	stimslide_onsettoonsettime	stimslide_resp	stimslide_rt	stimslide_rttime	onset_unrounded
4	2.5	Run1_VB_R01_R2proc	18	1	"<?xml version=""1.0""?>\n<Clock xmlns:dt=""urn:schemas-microsoft-com:datatypes""><Description dt:dt=""string"">E-Prime Primary Realtime Clock</Description><StartTime><Timestamp dt:dt=""int"">0</Timestamp><DateUtc dt:dt=""string"">2018-10-11T20:35:57Z</DateUtc></StartTime><FrequencyChanges><FrequencyChange><Frequency dt:dt=""r8"">3020390</Frequency><Timestamp dt:dt=""r8"">50582930071</Timestamp><Current dt:dt=""r8"">0</Current><DateUtc dt:dt=""string"">2018-10-11T20:35:57Z</DateUtc></FrequencyChange></FrequencyChanges></Clock>\n"	Run1_VB_R01_R2proc-18-1	60.022	1.0.0.186	1	-956076074	Professional	2.0.10.356	2.0.10.356	10/11/18	10/11/18 20:35	16:35:58	2.0.10.252	1	0	0	39512	16	39512	3998	-999999	211147	-3	199453	0	Run2Proc	1	1	1	RunList	1	HighSmallED	8000	0	61504	0	61504	0	61504	0	B2HighSmallEDBlockProc	n/a	n/a	n/a	1.0	1.0	1.0	n/a	n/a	n/a	n/a	n/a	n/a	n/a	n/a	n/a	Run2BlockList	1	n/a	n/a	n/a	n/a	n/a	n/a	n/a	n/a	n/a	n/a	n/a	n/a	n/a	n/a	n/a	n/a	n/a	n/a	1.0	1.0	1.0	n/a	n/a	n/a	n/a	n/a	n/a	n/a	n/a	n/a	n/a	n/a	n/a	n/a	n/a	n/a	n/a	n/a	n/a	n/a	n/a	n/a	n/a	n/a	n/a	n/a	n/a	n/a	n/a	n/a	n/a	n/a	n/a	n/a	n/a	n/a	n/a	n/a	n/a	n/a	n/a	n/a	n/a	n/a	n/a	n/a	n/a	n/a	n/a	n/a	n/a	n/a	n/a	n/a	n/a	n/a	n/a	n/a	n/a	n/a	n/a	n/a	n/a	n/a	n/a	n/a	n/a	n/a	n/a	n/a	B2_01.jpg	500	0	46009	-1	46009	0	TrialProc1	B2HighSmallEDBlockList	2500	0	43510	0	43510	-2	43510	2499	d	1848	45358	4.0
7	2.5	Run1_VB_R01_R2proc	18	1	"<?xml version=""1.0""?>\n<Clock xmlns:dt=""urn:schemas-microsoft-com:datatypes""><Description dt:dt=""string"">E-Prime Primary Realtime Clock</Description><StartTime><Timestamp dt:dt=""int"">0</Timestamp><DateUtc dt:dt=""string"">2018-10-11T20:35:57Z</DateUtc></StartTime><FrequencyChanges><FrequencyChange><Frequency dt:dt=""r8"">3020390</Frequency><Timestamp dt:dt=""r8"">50582930071</Timestamp><Current dt:dt=""r8"">0</Current><DateUtc dt:dt=""string"">2018-10-11T20:35:57Z</DateUtc></FrequencyChange></FrequencyChanges></Clock>\n"	Run1_VB_R01_R2proc-18-1	60.022	1.0.0.186	1	-956076074	Professional	2.0.10.356	2.0.10.356	10/11/18	10/11/18 20:35	16:35:58	2.0.10.252	1	0	0	39512	16	39512	3998	-999999	211147	-3	199453	0	Run2Proc	1	1	1	RunList	1	HighSmallED	8000	0	61504	0	61504	0	61504	0	B2HighSmallEDBlockProc	n/a	n/a	n/a	1.0	1.0	1.0	n/a	n/a	n/a	n/a	n/a	n/a	n/a	n/a	n/a	Run2BlockList	2	n/a	n/a	n/a	n/a	n/a	n/a	n/a	n/a	n/a	n/a	n/a	n/a	n/a	n/a	n/a	n/a	n/a	n/a	2.0	1.0	2.0	n/a	n/a	n/a	n/a	n/a	n/a	n/a	n/a	n/a	n/a	n/a	n/a	n/a	n/a	n/a	n/a	n/a	n/a	n/a	n/a	n/a	n/a	n/a	n/a	n/a	n/a	n/a	n/a	n/a	n/a	n/a	n/a	n/a	n/a	n/a	n/a	n/a	n/a	n/a	n/a	n/a	n/a	n/a	n/a	n/a	n/a	n/a	n/a	n/a	n/a	n/a	n/a	n/a	n/a	n/a	n/a	n/a	n/a	n/a	n/a	n/a	n/a	n/a	n/a	n/a	n/a	n/a	n/a	n/a	B2_02.jpg	500	0	49008	-1	49008	0	TrialProc1	B2HighSmallEDBlockList	2500	0	46509	0	46509	0	46509	2499	c	1457	47966	6.9990000000000006
10	2.5	Run1_VB_R01_R2proc	18	1	"<?xml version=""1.0""?>\n<Clock xmlns:dt=""urn:schemas-microsoft-com:datatypes""><Description dt:dt=""string"">E-Prime Primary Realtime Clock</Description><StartTime><Timestamp dt:dt=""int"">0</Timestamp><DateUtc dt:dt=""string"">2018-10-11T20:35:57Z</DateUtc></StartTime><FrequencyChanges><FrequencyChange><Frequency dt:dt=""r8"">3020390</Frequency><Timestamp dt:dt=""r8"">50582930071</Timestamp><Current dt:dt=""r8"">0</Current><DateUtc dt:dt=""string"">2018-10-11T20:35:57Z</DateUtc></FrequencyChange></FrequencyChanges></Clock>\n"	Run1_VB_R01_R2proc-18-1	60.022	1.0.0.186	1	-956076074	Professional	2.0.10.356	2.0.10.356	10/11/18	10/11/18 20:35	16:35:58	2.0.10.252	1	0	0	39512	16	39512	3998	-999999	211147	-3	199453	0	Run2Proc	1	1	1	RunList	1	HighSmallED	8000	0	61504	0	61504	0	61504	0	B2HighSmallEDBlockProc	n/a	n/a	n/a	1.0	1.0	1.0	n/a	n/a	n/a	n/a	n/a	n/a	n/a	n/a	n/a	Run2BlockList	3	n/a	n/a	n/a	n/a	n/a	n/a	n/a	n/a	n/a	n/a	n/a	n/a	n/a	n/a	n/a	n/a	n/a	n/a	3.0	1.0	3.0	n/a	n/a	n/a	n/a	n/a	n/a	n/a	n/a	n/a	n/a	n/a	n/a	n/a	n/a	n/a	n/a	n/a	n/a	n/a	n/a	n/a	n/a	n/a	n/a	n/a	n/a	n/a	n/a	n/a	n/a	n/a	n/a	n/a	n/a	n/a	n/a	n/a	n/a	n/a	n/a	n/a	n/a	n/a	n/a	n/a	n/a	n/a	n/a	n/a	n/a	n/a	n/a	n/a	n/a	n/a	n/a	n/a	n/a	n/a	n/a	n/a	n/a	n/a	n/a	n/a	n/a	n/a	n/a	n/a	B2_03.jpg	500	0	52007	-1	52007	0	TrialProc1	B2HighSmallEDBlockList	2500	0	49508	0	49508	0	49508	2499	d	922	50430	9.998000000000001
13	2.5	Run1_VB_R01_R2proc	18	1	"<?xml version=""1.0""?>\n<Clock xmlns:dt=""urn:schemas-microsoft-com:datatypes""><Description dt:dt=""string"">E-Prime Primary Realtime Clock</Description><StartTime><Timestamp dt:dt=""int"">0</Timestamp><DateUtc dt:dt=""string"">2018-10-11T20:35:57Z</DateUtc></StartTime><FrequencyChanges><FrequencyChange><Frequency dt:dt=""r8"">3020390</Frequency><Timestamp dt:dt=""r8"">50582930071</Timestamp><Current dt:dt=""r8"">0</Current><DateUtc dt:dt=""string"">2018-10-11T20:35:57Z</DateUtc></FrequencyChange></FrequencyChanges></Clock>\n"	Run1_VB_R01_R2proc-18-1	60.022	1.0.0.186	1	-956076074	Professional	2.0.10.356	2.0.10.356	10/11/18	10/11/18 20:35	16:35:58	2.0.10.252	1	0	0	39512	16	39512	3998	-999999	211147	-3	199453	0	Run2Proc	1	1	1	RunList	1	HighSmallED	8000	0	61504	0	61504	0	61504	0	B2HighSmallEDBlockProc	n/a	n/a	n/a	1.0	1.0	1.0	n/a	n/a	n/a	n/a	n/a	n/a	n/a	n/a	n/a	Run2BlockList	4	n/a	n/a	n/a	n/a	n/a	n/a	n/a	n/a	n/a	n/a	n/a	n/a	n/a	n/a	n/a	n/a	n/a	n/a	4.0	1.0	4.0	n/a	n/a	n/a	n/a	n/a	n/a	n/a	n/a	n/a	n/a	n/a	n/a	n/a	n/a	n/a	n/a	n/a	n/a	n/a	n/a	n/a	n/a	n/a	n/a	n/a	n/a	n/a	n/a	n/a	n/a	n/a	n/a	n/a	n/a	n/a	n/a	n/a	n/a	n/a	n/a	n/a	n/a	n/a	n/a	n/a	n/a	n/a	n/a	n/a	n/a	n/a	n/a	n/a	n/a	n/a	n/a	n/a	n/a	n/a	n/a	n/a	n/a	n/a	n/a	n/a	n/a	n/a	n/a	n/a	B2_04.jpg	500	0	55006	-1	55006	0	TrialProc1	B2HighSmallEDBlockList	2500	0	52507	0	52507	0	52507	2499	d	1122	53629	12.997
16	2.5	Run1_VB_R01_R2proc	18	1	"<?xml version=""1.0""?>\n<Clock xmlns:dt=""urn:schemas-microsoft-com:datatypes""><Description dt:dt=""string"">E-Prime Primary Realtime Clock</Description><StartTime><Timestamp dt:dt=""int"">0</Timestamp><DateUtc dt:dt=""string"">2018-10-11T20:35:57Z</DateUtc></StartTime><FrequencyChanges><FrequencyChange><Frequency dt:dt=""r8"">3020390</Frequency><Timestamp dt:dt=""r8"">50582930071</Timestamp><Current dt:dt=""r8"">0</Current><DateUtc dt:dt=""string"">2018-10-11T20:35:57Z</DateUtc></FrequencyChange></FrequencyChanges></Clock>\n"	Run1_VB_R01_R2proc-18-1	60.022	1.0.0.186	1	-956076074	Professional	2.0.10.356	2.0.10.356	10/11/18	10/11/18 20:35	16:35:58	2.0.10.252	1	0	0	39512	16	39512	3998	-999999	211147	-3	199453	0	Run2Proc	1	1	1	RunList	1	HighSmallED	8000	0	61504	0	61504	0	61504	0	B2HighSmallEDBlockProc	n/a	n/a	n/a	1.0	1.0	1.0	n/a	n/a	n/a	n/a	n/a	n/a	n/a	n/a	n/a	Run2BlockList	5	n/a	n/a	n/a	n/a	n/a	n/a	n/a	n/a	n/a	n/a	n/a	n/a	n/a	n/a	n/a	n/a	n/a	n/a	5.0	1.0	5.0	n/a	n/a	n/a	n/a	n/a	n/a	n/a	n/a	n/a	n/a	n/a	n/a	n/a	n/a	n/a	n/a	n/a	n/a	n/a	n/a	n/a	n/a	n/a	n/a	n/a	n/a	n/a	n/a	n/a	n/a	n/a	n/a	n/a	n/a	n/a	n/a	n/a	n/a	n/a	n/a	n/a	n/a	n/a	n/a	n/a	n/a	n/a	n/a	n/a	n/a	n/a	n/a	n/a	n/a	n/a	n/a	n/a	n/a	n/a	n/a	n/a	n/a	n/a	n/a	n/a	n/a	n/a	n/a	n/a	B2_05.jpg	500	0	58005	-1	58005	0	TrialProc1	B2HighSmallEDBlockList	2500	0	55506	0	55506	0	55506	2499	d	1219	56725	15.996
19	2.5	Run1_VB_R01_R2proc	18	1	"<?xml version=""1.0""?>\n<Clock xmlns:dt=""urn:schemas-microsoft-com:datatypes""><Description dt:dt=""string"">E-Prime Primary Realtime Clock</Description><StartTime><Timestamp dt:dt=""int"">0</Timestamp><DateUtc dt:dt=""string"">2018-10-11T20:35:57Z</DateUtc></StartTime><FrequencyChanges><FrequencyChange><Frequency dt:dt=""r8"">3020390</Frequency><Timestamp dt:dt=""r8"">50582930071</Timestamp><Current dt:dt=""r8"">0</Current><DateUtc dt:dt=""string"">2018-10-11T20:35:57Z</DateUtc></FrequencyChange></FrequencyChanges></Clock>\n"	Run1_VB_R01_R2proc-18-1	60.022	1.0.0.186	1	-956076074	Professional	2.0.10.356	2.0.10.356	10/11/18	10/11/18 20:35	16:35:58	2.0.10.252	1	0	0	39512	16	39512	3998	-999999	211147	-3	199453	0	Run2Proc	1	1	1	RunList	1	HighSmallED	8000	0	61504	0	61504	0	61504	0	B2HighSmallEDBlockProc	n/a	n/a	n/a	1.0	1.0	1.0	n/a	n/a	n/a	n/a	n/a	n/a	n/a	n/a	n/a	Run2BlockList	6	n/a	n/a	n/a	n/a	n/a	n/a	n/a	n/a	n/a	n/a	n/a	n/a	n/a	n/a	n/a	n/a	n/a	n/a	6.0	1.0	6.0	n/a	n/a	n/a	n/a	n/a	n/a	n/a	n/a	n/a	n/a	n/a	n/a	n/a	n/a	n/a	n/a	n/a	n/a	n/a	n/a	n/a	n/a	n/a	n/a	n/a	n/a	n/a	n/a	n/a	n/a	n/a	n/a	n/a	n/a	n/a	n/a	n/a	n/a	n/a	n/a	n/a	n/a	n/a	n/a	n/a	n/a	n/a	n/a	n/a	n/a	n/a	n/a	n/a	n/a	n/a	n/a	n/a	n/a	n/a	n/a	n/a	n/a	n/a	n/a	n/a	n/a	n/a	n/a	n/a	B2_06.jpg	500	0	61004	-1	61004	0	TrialProc1	B2HighSmallEDBlockList	2500	0	58505	0	58505	0	58505	2499	d	724	59229	18.994999999999997
30	2.5	Run1_VB_R01_R2proc	18	1	"<?xml version=""1.0""?>\n<Clock xmlns:dt=""urn:schemas-microsoft-com:datatypes""><Description dt:dt=""string"">E-Prime Primary Realtime Clock</Description><StartTime><Timestamp dt:dt=""int"">0</Timestamp><DateUtc dt:dt=""string"">2018-10-11T20:35:57Z</DateUtc></StartTime><FrequencyChanges><FrequencyChange><Frequency dt:dt=""r8"">3020390</Frequency><Timestamp dt:dt=""r8"">50582930071</Timestamp><Current dt:dt=""r8"">0</Current><DateUtc dt:dt=""string"">2018-10-11T20:35:57Z</DateUtc></FrequencyChange></FrequencyChanges></Clock>\n"	Run1_VB_R01_R2proc-18-1	60.022	1.0.0.186	1	-956076074	Professional	2.0.10.356	2.0.10.356	10/11/18	10/11/18 20:35	16:35:58	2.0.10.252	1	0	0	39512	16	39512	3998	-999999	211147	-3	199453	0	Run2Proc	1	1	1	RunList	2	HighLargeED	8000	0	87494	0	87494	0	87494	0	A2HighLargeEDBlockProc	n/a	n/a	n/a	2.0	1.0	2.0	n/a	n/a	n/a	n/a	n/a	n/a	n/a	n/a	n/a	Run2BlockList	1	n/a	n/a	n/a	1.0	1.0	1.0	n/a	n/a	n/a	n/a	n/a	n/a	n/a	n/a	n/a	n/a	n/a	n/a	n/a	n/a	n/a	n/a	n/a	n/a	n/a	n/a	n/a	n/a	n/a	n/a	n/a	n/a	n/a	n/a	n/a	n/a	n/a	n/a	n/a	n/a	n/a	n/a	n/a	n/a	n/a	n/a	n/a	n/a	n/a	n/a	n/a	n/a	n/a	n/a	n/a	n/a	n/a	n/a	n/a	n/a	n/a	n/a	n/a	n/a	n/a	n/a	n/a	n/a	n/a	n/a	n/a	n/a	n/a	n/a	n/a	n/a	n/a	n/a	n/a	n/a	n/a	n/a	n/a	n/a	n/a	n/a	n/a	n/a	n/a	n/a	A2_01.jpg	500	0	72000	-1	72000	0	TrialProc1	A2HighLargeEDBlockList	2500	0	69501	0	69501	-3	69501	2499	d	1128	70629	29.991
33	2.5	Run1_VB_R01_R2proc	18	1	"<?xml version=""1.0""?>\n<Clock xmlns:dt=""urn:schemas-microsoft-com:datatypes""><Description dt:dt=""string"">E-Prime Primary Realtime Clock</Description><StartTime><Timestamp dt:dt=""int"">0</Timestamp><DateUtc dt:dt=""string"">2018-10-11T20:35:57Z</DateUtc></StartTime><FrequencyChanges><FrequencyChange><Frequency dt:dt=""r8"">3020390</Frequency><Timestamp dt:dt=""r8"">50582930071</Timestamp><Current dt:dt=""r8"">0</Current><DateUtc dt:dt=""string"">2018-10-11T20:35:57Z</DateUtc></FrequencyChange></FrequencyChanges></Clock>\n"	Run1_VB_R01_R2proc-18-1	60.022	1.0.0.186	1	-956076074	Professional	2.0.10.356	2.0.10.356	10/11/18	10/11/18 20:35	16:35:58	2.0.10.252	1	0	0	39512	16	39512	3998	-999999	211147	-3	199453	0	Run2Proc	1	1	1	RunList	2	HighLargeED	8000	0	87494	0	87494	0	87494	0	A2HighLargeEDBlockProc	n/a	n/a	n/a	2.0	1.0	2.0	n/a	n/a	n/a	n/a	n/a	n/a	n/a	n/a	n/a	Run2BlockList	2	n/a	n/a	n/a	2.0	1.0	2.0	n/a	n/a	n/a	n/a	n/a	n/a	n/a	n/a	n/a	n/a	n/a	n/a	n/a	n/a	n/a	n/a	n/a	n/a	n/a	n/a	n/a	n/a	n/a	n/a	n/a	n/a	n/a	n/a	n/a	n/a	n/a	n/a	n/a	n/a	n/a	n/a	n/a	n/a	n/a	n/a	n/a	n/a	n/a	n/a	n/a	n/a	n/a	n/a	n/a	n/a	n/a	n/a	n/a	n/a	n/a	n/a	n/a	n/a	n/a	n/a	n/a	n/a	n/a	n/a	n/a	n/a	n/a	n/a	n/a	n/a	n/a	n/a	n/a	n/a	n/a	n/a	n/a	n/a	n/a	n/a	n/a	n/a	n/a	n/a	A2_02.jpg	500	0	74999	-1	74999	0	TrialProc1	A2HighLargeEDBlockList	2500	0	72500	0	72500	0	72500	2499	d	1441	73941	32.989999999999995
36	2.5	Run1_VB_R01_R2proc	18	1	"<?xml version=""1.0""?>\n<Clock xmlns:dt=""urn:schemas-microsoft-com:datatypes""><Description dt:dt=""string"">E-Prime Primary Realtime Clock</Description><StartTime><Timestamp dt:dt=""int"">0</Timestamp><DateUtc dt:dt=""string"">2018-10-11T20:35:57Z</DateUtc></StartTime><FrequencyChanges><FrequencyChange><Frequency dt:dt=""r8"">3020390</Frequency><Timestamp dt:dt=""r8"">50582930071</Timestamp><Current dt:dt=""r8"">0</Current><DateUtc dt:dt=""string"">2018-10-11T20:35:57Z</DateUtc></FrequencyChange></FrequencyChanges></Clock>\n"	Run1_VB_R01_R2proc-18-1	60.022	1.0.0.186	1	-956076074	Professional	2.0.10.356	2.0.10.356	10/11/18	10/11/18 20:35	16:35:58	2.0.10.252	1	0	0	39512	16	39512	3998	-999999	211147	-3	199453	0	Run2Proc	1	1	1	RunList	2	HighLargeED	8000	0	87494	0	87494	0	87494	0	A2HighLargeEDBlockProc	n/a	n/a	n/a	2.0	1.0	2.0	n/a	n/a	n/a	n/a	n/a	n/a	n/a	n/a	n/a	Run2BlockList	3	n/a	n/a	n/a	3.0	1.0	3.0	n/a	n/a	n/a	n/a	n/a	n/a	n/a	n/a	n/a	n/a	n/a	n/a	n/a	n/a	n/a	n/a	n/a	n/a	n/a	n/a	n/a	n/a	n/a	n/a	n/a	n/a	n/a	n/a	n/a	n/a	n/a	n/a	n/a	n/a	n/a	n/a	n/a	n/a	n/a	n/a	n/a	n/a	n/a	n/a	n/a	n/a	n/a	n/a	n/a	n/a	n/a	n/a	n/a	n/a	n/a	n/a	n/a	n/a	n/a	n/a	n/a	n/a	n/a	n/a	n/a	n/a	n/a	n/a	n/a	n/a	n/a	n/a	n/a	n/a	n/a	n/a	n/a	n/a	n/a	n/a	n/a	n/a	n/a	n/a	A2_03.jpg	500	0	77998	0	77998	0	TrialProc1	A2HighLargeEDBlockList	2500	1	75499	1	75499	-1	75498	2500	c	1371	76869	35.988
39	2.5	Run1_VB_R01_R2proc	18	1	"<?xml version=""1.0""?>\n<Clock xmlns:dt=""urn:schemas-microsoft-com:datatypes""><Description dt:dt=""string"">E-Prime Primary Realtime Clock</Description><StartTime><Timestamp dt:dt=""int"">0</Timestamp><DateUtc dt:dt=""string"">2018-10-11T20:35:57Z</DateUtc></StartTime><FrequencyChanges><FrequencyChange><Frequency dt:dt=""r8"">3020390</Frequency><Timestamp dt:dt=""r8"">50582930071</Timestamp><Current dt:dt=""r8"">0</Current><DateUtc dt:dt=""string"">2018-10-11T20:35:57Z</DateUtc></FrequencyChange></FrequencyChanges></Clock>\n"	Run1_VB_R01_R2proc-18-1	60.022	1.0.0.186	1	-956076074	Professional	2.0.10.356	2.0.10.356	10/11/18	10/11/18 20:35	16:35:58	2.0.10.252	1	0	0	39512	16	39512	3998	-999999	211147	-3	199453	0	Run2Proc	1	1	1	RunList	2	HighLargeED	8000	0	87494	0	87494	0	87494	0	A2HighLargeEDBlockProc	n/a	n/a	n/a	2.0	1.0	2.0	n/a	n/a	n/a	n/a	n/a	n/a	n/a	n/a	n/a	Run2BlockList	4	n/a	n/a	n/a	4.0	1.0	4.0	n/a	n/a	n/a	n/a	n/a	n/a	n/a	n/a	n/a	n/a	n/a	n/a	n/a	n/a	n/a	n/a	n/a	n/a	n/a	n/a	n/a	n/a	n/a	n/a	n/a	n/a	n/a	n/a	n/a	n/a	n/a	n/a	n/a	n/a	n/a	n/a	n/a	n/a	n/a	n/a	n/a	n/a	n/a	n/a	n/a	n/a	n/a	n/a	n/a	n/a	n/a	n/a	n/a	n/a	n/a	n/a	n/a	n/a	n/a	n/a	n/a	n/a	n/a	n/a	n/a	n/a	n/a	n/a	n/a	n/a	n/a	n/a	n/a	n/a	n/a	n/a	n/a	n/a	n/a	n/a	n/a	n/a	n/a	n/a	A2_04.jpg	500	0	80996	-1	80996	0	TrialProc1	A2HighLargeEDBlockList	2500	0	78497	0	78497	-1	78497	2499	d	1252	79749	38.987
42	2.5	Run1_VB_R01_R2proc	18	1	"<?xml version=""1.0""?>\n<Clock xmlns:dt=""urn:schemas-microsoft-com:datatypes""><Description dt:dt=""string"">E-Prime Primary Realtime Clock</Description><StartTime><Timestamp dt:dt=""int"">0</Timestamp><DateUtc dt:dt=""string"">2018-10-11T20:35:57Z</DateUtc></StartTime><FrequencyChanges><FrequencyChange><Frequency dt:dt=""r8"">3020390</Frequency><Timestamp dt:dt=""r8"">50582930071</Timestamp><Current dt:dt=""r8"">0</Current><DateUtc dt:dt=""string"">2018-10-11T20:35:57Z</DateUtc></FrequencyChange></FrequencyChanges></Clock>\n"	Run1_VB_R01_R2proc-18-1	60.022	1.0.0.186	1	-956076074	Professional	2.0.10.356	2.0.10.356	10/11/18	10/11/18 20:35	16:35:58	2.0.10.252	1	0	0	39512	16	39512	3998	-999999	211147	-3	199453	0	Run2Proc	1	1	1	RunList	2	HighLargeED	8000	0	87494	0	87494	0	87494	0	A2HighLargeEDBlockProc	n/a	n/a	n/a	2.0	1.0	2.0	n/a	n/a	n/a	n/a	n/a	n/a	n/a	n/a	n/a	Run2BlockList	5	n/a	n/a	n/a	5.0	1.0	5.0	n/a	n/a	n/a	n/a	n/a	n/a	n/a	n/a	n/a	n/a	n/a	n/a	n/a	n/a	n/a	n/a	n/a	n/a	n/a	n/a	n/a	n/a	n/a	n/a	n/a	n/a	n/a	n/a	n/a	n/a	n/a	n/a	n/a	n/a	n/a	n/a	n/a	n/a	n/a	n/a	n/a	n/a	n/a	n/a	n/a	n/a	n/a	n/a	n/a	n/a	n/a	n/a	n/a	n/a	n/a	n/a	n/a	n/a	n/a	n/a	n/a	n/a	n/a	n/a	n/a	n/a	n/a	n/a	n/a	n/a	n/a	n/a	n/a	n/a	n/a	n/a	n/a	n/a	n/a	n/a	n/a	n/a	n/a	n/a	A2_05.jpg	500	0	83995	-1	83995	0	TrialProc1	A2HighLargeEDBlockList	2500	0	81496	0	81496	0	81496	2499	d	949	82445	41.986
45	2.5	Run1_VB_R01_R2proc	18	1	"<?xml version=""1.0""?>\n<Clock xmlns:dt=""urn:schemas-microsoft-com:datatypes""><Description dt:dt=""string"">E-Prime Primary Realtime Clock</Description><StartTime><Timestamp dt:dt=""int"">0</Timestamp><DateUtc dt:dt=""string"">2018-10-11T20:35:57Z</DateUtc></StartTime><FrequencyChanges><FrequencyChange><Frequency dt:dt=""r8"">3020390</Frequency><Timestamp dt:dt=""r8"">50582930071</Timestamp><Current dt:dt=""r8"">0</Current><DateUtc dt:dt=""string"">2018-10-11T20:35:57Z</DateUtc></FrequencyChange></FrequencyChanges></Clock>\n"	Run1_VB_R01_R2proc-18-1	60.022	1.0.0.186	1	-956076074	Professional	2.0.10.356	2.0.10.356	10/11/18	10/11/18 20:35	16:35:58	2.0.10.252	1	0	0	39512	16	39512	3998	-999999	211147	-3	199453	0	Run2Proc	1	1	1	RunList	2	HighLargeED	8000	0	87494	0	87494	0	87494	0	A2HighLargeEDBlockProc	n/a	n/a	n/a	2.0	1.0	2.0	n/a	n/a	n/a	n/a	n/a	n/a	n/a	n/a	n/a	Run2BlockList	6	n/a	n/a	n/a	6.0	1.0	6.0	n/a	n/a	n/a	n/a	n/a	n/a	n/a	n/a	n/a	n/a	n/a	n/a	n/a	n/a	n/a	n/a	n/a	n/a	n/a	n/a	n/a	n/a	n/a	n/a	n/a	n/a	n/a	n/a	n/a	n/a	n/a	n/a	n/a	n/a	n/a	n/a	n/a	n/a	n/a	n/a	n/a	n/a	n/a	n/a	n/a	n/a	n/a	n/a	n/a	n/a	n/a	n/a	n/a	n/a	n/a	n/a	n/a	n/a	n/a	n/a	n/a	n/a	n/a	n/a	n/a	n/a	n/a	n/a	n/a	n/a	n/a	n/a	n/a	n/a	n/a	n/a	n/a	n/a	n/a	n/a	n/a	n/a	n/a	n/a	A2_06.jpg	500	0	86994	-1	86994	0	TrialProc1	A2HighLargeEDBlockList	2500	0	84495	0	84495	0	84495	2499	d	1078	85573	44.985
56	2.5	Run1_VB_R01_R2proc	18	1	"<?xml version=""1.0""?>\n<Clock xmlns:dt=""urn:schemas-microsoft-com:datatypes""><Description dt:dt=""string"">E-Prime Primary Realtime Clock</Description><StartTime><Timestamp dt:dt=""int"">0</Timestamp><DateUtc dt:dt=""string"">2018-10-11T20:35:57Z</DateUtc></StartTime><FrequencyChanges><FrequencyChange><Frequency dt:dt=""r8"">3020390</Frequency><Timestamp dt:dt=""r8"">50582930071</Timestamp><Current dt:dt=""r8"">0</Current><DateUtc dt:dt=""string"">2018-10-11T20:35:57Z</DateUtc></FrequencyChange></FrequencyChanges></Clock>\n"	Run1_VB_R01_R2proc-18-1	60.022	1.0.0.186	1	-956076074	Professional	2.0.10.356	2.0.10.356	10/11/18	10/11/18 20:35	16:35:58	2.0.10.252	1	0	0	39512	16	39512	3998	-999999	211147	-3	199453	0	Run2Proc	1	1	1	RunList	3	OfficeLarge	8000	0	113485	0	113485	0	113485	0	E2OfficeLargeBlockProc	n/a	n/a	n/a	3.0	1.0	3.0	n/a	n/a	n/a	n/a	n/a	n/a	n/a	n/a	n/a	Run2BlockList	1	n/a	n/a	n/a	n/a	n/a	n/a	n/a	n/a	n/a	n/a	n/a	n/a	n/a	n/a	n/a	n/a	n/a	n/a	n/a	n/a	n/a	n/a	n/a	n/a	n/a	n/a	n/a	n/a	n/a	n/a	n/a	n/a	n/a	n/a	n/a	n/a	n/a	n/a	n/a	n/a	n/a	n/a	n/a	n/a	n/a	n/a	n/a	n/a	n/a	n/a	n/a	n/a	n/a	n/a	n/a	n/a	n/a	n/a	n/a	n/a	n/a	n/a	n/a	1.0	1.0	1.0	n/a	n/a	n/a	n/a	n/a	n/a	n/a	n/a	n/a	n/a	n/a	n/a	n/a	n/a	n/a	n/a	n/a	n/a	n/a	n/a	n/a	n/a	n/a	n/a	E2_01.jpg	500	0	97990	-1	97990	0	TrialProc1	E2OfficeLargeBlockList	2500	0	95491	0	95491	-3	95491	2499	c	1490	96981	55.981
59	2.5	Run1_VB_R01_R2proc	18	1	"<?xml version=""1.0""?>\n<Clock xmlns:dt=""urn:schemas-microsoft-com:datatypes""><Description dt:dt=""string"">E-Prime Primary Realtime Clock</Description><StartTime><Timestamp dt:dt=""int"">0</Timestamp><DateUtc dt:dt=""string"">2018-10-11T20:35:57Z</DateUtc></StartTime><FrequencyChanges><FrequencyChange><Frequency dt:dt=""r8"">3020390</Frequency><Timestamp dt:dt=""r8"">50582930071</Timestamp><Current dt:dt=""r8"">0</Current><DateUtc dt:dt=""string"">2018-10-11T20:35:57Z</DateUtc></FrequencyChange></FrequencyChanges></Clock>\n"	Run1_VB_R01_R2proc-18-1	60.022	1.0.0.186	1	-956076074	Professional	2.0.10.356	2.0.10.356	10/11/18	10/11/18 20:35	16:35:58	2.0.10.252	1	0	0	39512	16	39512	3998	-999999	211147	-3	199453	0	Run2Proc	1	1	1	RunList	3	OfficeLarge	8000	0	113485	0	113485	0	113485	0	E2OfficeLargeBlockProc	n/a	n/a	n/a	3.0	1.0	3.0	n/a	n/a	n/a	n/a	n/a	n/a	n/a	n/a	n/a	Run2BlockList	2	n/a	n/a	n/a	n/a	n/a	n/a	n/a	n/a	n/a	n/a	n/a	n/a	n/a	n/a	n/a	n/a	n/a	n/a	n/a	n/a	n/a	n/a	n/a	n/a	n/a	n/a	n/a	n/a	n/a	n/a	n/a	n/a	n/a	n/a	n/a	n/a	n/a	n/a	n/a	n/a	n/a	n/a	n/a	n/a	n/a	n/a	n/a	n/a	n/a	n/a	n/a	n/a	n/a	n/a	n/a	n/a	n/a	n/a	n/a	n/a	n/a	n/a	n/a	2.0	1.0	2.0	n/a	n/a	n/a	n/a	n/a	n/a	n/a	n/a	n/a	n/a	n/a	n/a	n/a	n/a	n/a	n/a	n/a	n/a	n/a	n/a	n/a	n/a	n/a	n/a	E2_02.jpg	500	0	100989	-1	100989	0	TrialProc1	E2OfficeLargeBlockList	2500	0	98490	0	98490	0	98490	2499	c	1259	99749	58.98
62	2.5	Run1_VB_R01_R2proc	18	1	"<?xml version=""1.0""?>\n<Clock xmlns:dt=""urn:schemas-microsoft-com:datatypes""><Description dt:dt=""string"">E-Prime Primary Realtime Clock</Description><StartTime><Timestamp dt:dt=""int"">0</Timestamp><DateUtc dt:dt=""string"">2018-10-11T20:35:57Z</DateUtc></StartTime><FrequencyChanges><FrequencyChange><Frequency dt:dt=""r8"">3020390</Frequency><Timestamp dt:dt=""r8"">50582930071</Timestamp><Current dt:dt=""r8"">0</Current><DateUtc dt:dt=""string"">2018-10-11T20:35:57Z</DateUtc></FrequencyChange></FrequencyChanges></Clock>\n"	Run1_VB_R01_R2proc-18-1	60.022	1.0.0.186	1	-956076074	Professional	2.0.10.356	2.0.10.356	10/11/18	10/11/18 20:35	16:35:58	2.0.10.252	1	0	0	39512	16	39512	3998	-999999	211147	-3	199453	0	Run2Proc	1	1	1	RunList	3	OfficeLarge	8000	0	113485	0	113485	0	113485	0	E2OfficeLargeBlockProc	n/a	n/a	n/a	3.0	1.0	3.0	n/a	n/a	n/a	n/a	n/a	n/a	n/a	n/a	n/a	Run2BlockList	3	n/a	n/a	n/a	n/a	n/a	n/a	n/a	n/a	n/a	n/a	n/a	n/a	n/a	n/a	n/a	n/a	n/a	n/a	n/a	n/a	n/a	n/a	n/a	n/a	n/a	n/a	n/a	n/a	n/a	n/a	n/a	n/a	n/a	n/a	n/a	n/a	n/a	n/a	n/a	n/a	n/a	n/a	n/a	n/a	n/a	n/a	n/a	n/a	n/a	n/a	n/a	n/a	n/a	n/a	n/a	n/a	n/a	n/a	n/a	n/a	n/a	n/a	n/a	3.0	1.0	3.0	n/a	n/a	n/a	n/a	n/a	n/a	n/a	n/a	n/a	n/a	n/a	n/a	n/a	n/a	n/a	n/a	n/a	n/a	n/a	n/a	n/a	n/a	n/a	n/a	E2_03.jpg	500	0	103988	-1	103988	0	TrialProc1	E2OfficeLargeBlockList	2500	0	101489	0	101489	0	101489	2499	c	1356	102845	61.979
65	2.5	Run1_VB_R01_R2proc	18	1	"<?xml version=""1.0""?>\n<Clock xmlns:dt=""urn:schemas-microsoft-com:datatypes""><Description dt:dt=""string"">E-Prime Primary Realtime Clock</Description><StartTime><Timestamp dt:dt=""int"">0</Timestamp><DateUtc dt:dt=""string"">2018-10-11T20:35:57Z</DateUtc></StartTime><FrequencyChanges><FrequencyChange><Frequency dt:dt=""r8"">3020390</Frequency><Timestamp dt:dt=""r8"">50582930071</Timestamp><Current dt:dt=""r8"">0</Current><DateUtc dt:dt=""string"">2018-10-11T20:35:57Z</DateUtc></FrequencyChange></FrequencyChanges></Clock>\n"	Run1_VB_R01_R2proc-18-1	60.022	1.0.0.186	1	-956076074	Professional	2.0.10.356	2.0.10.356	10/11/18	10/11/18 20:35	16:35:58	2.0.10.252	1	0	0	39512	16	39512	3998	-999999	211147	-3	199453	0	Run2Proc	1	1	1	RunList	3	OfficeLarge	8000	0	113485	0	113485	0	113485	0	E2OfficeLargeBlockProc	n/a	n/a	n/a	3.0	1.0	3.0	n/a	n/a	n/a	n/a	n/a	n/a	n/a	n/a	n/a	Run2BlockList	4	n/a	n/a	n/a	n/a	n/a	n/a	n/a	n/a	n/a	n/a	n/a	n/a	n/a	n/a	n/a	n/a	n/a	n/a	n/a	n/a	n/a	n/a	n/a	n/a	n/a	n/a	n/a	n/a	n/a	n/a	n/a	n/a	n/a	n/a	n/a	n/a	n/a	n/a	n/a	n/a	n/a	n/a	n/a	n/a	n/a	n/a	n/a	n/a	n/a	n/a	n/a	n/a	n/a	n/a	n/a	n/a	n/a	n/a	n/a	n/a	n/a	n/a	n/a	4.0	1.0	4.0	n/a	n/a	n/a	n/a	n/a	n/a	n/a	n/a	n/a	n/a	n/a	n/a	n/a	n/a	n/a	n/a	n/a	n/a	n/a	n/a	n/a	n/a	n/a	n/a	E2_04.jpg	500	0	106987	-1	106987	0	TrialProc1	E2OfficeLargeBlockList	2500	0	104488	0	104488	0	104488	2499	d	1429	105917	64.97800000000001
68	2.5	Run1_VB_R01_R2proc	18	1	"<?xml version=""1.0""?>\n<Clock xmlns:dt=""urn:schemas-microsoft-com:datatypes""><Description dt:dt=""string"">E-Prime Primary Realtime Clock</Description><StartTime><Timestamp dt:dt=""int"">0</Timestamp><DateUtc dt:dt=""string"">2018-10-11T20:35:57Z</DateUtc></StartTime><FrequencyChanges><FrequencyChange><Frequency dt:dt=""r8"">3020390</Frequency><Timestamp dt:dt=""r8"">50582930071</Timestamp><Current dt:dt=""r8"">0</Current><DateUtc dt:dt=""string"">2018-10-11T20:35:57Z</DateUtc></FrequencyChange></FrequencyChanges></Clock>\n"	Run1_VB_R01_R2proc-18-1	60.022	1.0.0.186	1	-956076074	Professional	2.0.10.356	2.0.10.356	10/11/18	10/11/18 20:35	16:35:58	2.0.10.252	1	0	0	39512	16	39512	3998	-999999	211147	-3	199453	0	Run2Proc	1	1	1	RunList	3	OfficeLarge	8000	0	113485	0	113485	0	113485	0	E2OfficeLargeBlockProc	n/a	n/a	n/a	3.0	1.0	3.0	n/a	n/a	n/a	n/a	n/a	n/a	n/a	n/a	n/a	Run2BlockList	5	n/a	n/a	n/a	n/a	n/a	n/a	n/a	n/a	n/a	n/a	n/a	n/a	n/a	n/a	n/a	n/a	n/a	n/a	n/a	n/a	n/a	n/a	n/a	n/a	n/a	n/a	n/a	n/a	n/a	n/a	n/a	n/a	n/a	n/a	n/a	n/a	n/a	n/a	n/a	n/a	n/a	n/a	n/a	n/a	n/a	n/a	n/a	n/a	n/a	n/a	n/a	n/a	n/a	n/a	n/a	n/a	n/a	n/a	n/a	n/a	n/a	n/a	n/a	5.0	1.0	5.0	n/a	n/a	n/a	n/a	n/a	n/a	n/a	n/a	n/a	n/a	n/a	n/a	n/a	n/a	n/a	n/a	n/a	n/a	n/a	n/a	n/a	n/a	n/a	n/a	E2_05.jpg	500	0	109986	-1	109986	0	TrialProc1	E2OfficeLargeBlockList	2500	0	107487	0	107487	0	107487	2499	d	1422	108909	67.977
71	2.5	Run1_VB_R01_R2proc	18	1	"<?xml version=""1.0""?>\n<Clock xmlns:dt=""urn:schemas-microsoft-com:datatypes""><Description dt:dt=""string"">E-Prime Primary Realtime Clock</Description><StartTime><Timestamp dt:dt=""int"">0</Timestamp><DateUtc dt:dt=""string"">2018-10-11T20:35:57Z</DateUtc></StartTime><FrequencyChanges><FrequencyChange><Frequency dt:dt=""r8"">3020390</Frequency><Timestamp dt:dt=""r8"">50582930071</Timestamp><Current dt:dt=""r8"">0</Current><DateUtc dt:dt=""string"">2018-10-11T20:35:57Z</DateUtc></FrequencyChange></FrequencyChanges></Clock>\n"	Run1_VB_R01_R2proc-18-1	60.022	1.0.0.186	1	-956076074	Professional	2.0.10.356	2.0.10.356	10/11/18	10/11/18 20:35	16:35:58	2.0.10.252	1	0	0	39512	16	39512	3998	-999999	211147	-3	199453	0	Run2Proc	1	1	1	RunList	3	OfficeLarge	8000	0	113485	0	113485	0	113485	0	E2OfficeLargeBlockProc	n/a	n/a	n/a	3.0	1.0	3.0	n/a	n/a	n/a	n/a	n/a	n/a	n/a	n/a	n/a	Run2BlockList	6	n/a	n/a	n/a	n/a	n/a	n/a	n/a	n/a	n/a	n/a	n/a	n/a	n/a	n/a	n/a	n/a	n/a	n/a	n/a	n/a	n/a	n/a	n/a	n/a	n/a	n/a	n/a	n/a	n/a	n/a	n/a	n/a	n/a	n/a	n/a	n/a	n/a	n/a	n/a	n/a	n/a	n/a	n/a	n/a	n/a	n/a	n/a	n/a	n/a	n/a	n/a	n/a	n/a	n/a	n/a	n/a	n/a	n/a	n/a	n/a	n/a	n/a	n/a	6.0	1.0	6.0	n/a	n/a	n/a	n/a	n/a	n/a	n/a	n/a	n/a	n/a	n/a	n/a	n/a	n/a	n/a	n/a	n/a	n/a	n/a	n/a	n/a	n/a	n/a	n/a	E2_06.jpg	500	0	112985	-1	112985	0	TrialProc1	E2OfficeLargeBlockList	2500	0	110486	0	110486	0	110486	2499	c	1655	112141	70.976
82	2.5	Run1_VB_R01_R2proc	18	1	"<?xml version=""1.0""?>\n<Clock xmlns:dt=""urn:schemas-microsoft-com:datatypes""><Description dt:dt=""string"">E-Prime Primary Realtime Clock</Description><StartTime><Timestamp dt:dt=""int"">0</Timestamp><DateUtc dt:dt=""string"">2018-10-11T20:35:57Z</DateUtc></StartTime><FrequencyChanges><FrequencyChange><Frequency dt:dt=""r8"">3020390</Frequency><Timestamp dt:dt=""r8"">50582930071</Timestamp><Current dt:dt=""r8"">0</Current><DateUtc dt:dt=""string"">2018-10-11T20:35:57Z</DateUtc></FrequencyChange></FrequencyChanges></Clock>\n"	Run1_VB_R01_R2proc-18-1	60.022	1.0.0.186	1	-956076074	Professional	2.0.10.356	2.0.10.356	10/11/18	10/11/18 20:35	16:35:58	2.0.10.252	1	0	0	39512	16	39512	3998	-999999	211147	-3	199453	0	Run2Proc	1	1	1	RunList	4	LowLarge	8000	0	139475	0	139475	0	139475	0	C2LowLargeEDBlockProc	n/a	n/a	n/a	4.0	1.0	4.0	n/a	n/a	n/a	n/a	n/a	n/a	n/a	n/a	n/a	Run2BlockList	1	n/a	n/a	n/a	n/a	n/a	n/a	n/a	n/a	n/a	n/a	n/a	n/a	n/a	n/a	n/a	n/a	n/a	n/a	n/a	n/a	n/a	n/a	n/a	n/a	n/a	n/a	n/a	n/a	n/a	n/a	n/a	n/a	n/a	1.0	1.0	1.0	n/a	n/a	n/a	n/a	n/a	n/a	n/a	n/a	n/a	n/a	n/a	n/a	n/a	n/a	n/a	n/a	n/a	n/a	n/a	n/a	n/a	n/a	n/a	n/a	n/a	n/a	n/a	n/a	n/a	n/a	n/a	n/a	n/a	n/a	n/a	n/a	n/a	n/a	n/a	n/a	n/a	n/a	n/a	n/a	n/a	n/a	n/a	n/a	n/a	n/a	n/a	n/a	n/a	n/a	C2_01.jpg	500	0	123981	-1	123981	0	TrialProc1	C2LowLargeEDBlockList	2500	0	121482	0	121482	-3	121482	2499	c	1435	122917	81.972
85	2.5	Run1_VB_R01_R2proc	18	1	"<?xml version=""1.0""?>\n<Clock xmlns:dt=""urn:schemas-microsoft-com:datatypes""><Description dt:dt=""string"">E-Prime Primary Realtime Clock</Description><StartTime><Timestamp dt:dt=""int"">0</Timestamp><DateUtc dt:dt=""string"">2018-10-11T20:35:57Z</DateUtc></StartTime><FrequencyChanges><FrequencyChange><Frequency dt:dt=""r8"">3020390</Frequency><Timestamp dt:dt=""r8"">50582930071</Timestamp><Current dt:dt=""r8"">0</Current><DateUtc dt:dt=""string"">2018-10-11T20:35:57Z</DateUtc></FrequencyChange></FrequencyChanges></Clock>\n"	Run1_VB_R01_R2proc-18-1	60.022	1.0.0.186	1	-956076074	Professional	2.0.10.356	2.0.10.356	10/11/18	10/11/18 20:35	16:35:58	2.0.10.252	1	0	0	39512	16	39512	3998	-999999	211147	-3	199453	0	Run2Proc	1	1	1	RunList	4	LowLarge	8000	0	139475	0	139475	0	139475	0	C2LowLargeEDBlockProc	n/a	n/a	n/a	4.0	1.0	4.0	n/a	n/a	n/a	n/a	n/a	n/a	n/a	n/a	n/a	Run2BlockList	2	n/a	n/a	n/a	n/a	n/a	n/a	n/a	n/a	n/a	n/a	n/a	n/a	n/a	n/a	n/a	n/a	n/a	n/a	n/a	n/a	n/a	n/a	n/a	n/a	n/a	n/a	n/a	n/a	n/a	n/a	n/a	n/a	n/a	2.0	1.0	2.0	n/a	n/a	n/a	n/a	n/a	n/a	n/a	n/a	n/a	n/a	n/a	n/a	n/a	n/a	n/a	n/a	n/a	n/a	n/a	n/a	n/a	n/a	n/a	n/a	n/a	n/a	n/a	n/a	n/a	n/a	n/a	n/a	n/a	n/a	n/a	n/a	n/a	n/a	n/a	n/a	n/a	n/a	n/a	n/a	n/a	n/a	n/a	n/a	n/a	n/a	n/a	n/a	n/a	n/a	C2_02.jpg	500	0	126980	-1	126980	0	TrialProc1	C2LowLargeEDBlockList	2500	0	124481	0	124481	0	124481	2499	d	2004	126485	84.971
88	2.5	Run1_VB_R01_R2proc	18	1	"<?xml version=""1.0""?>\n<Clock xmlns:dt=""urn:schemas-microsoft-com:datatypes""><Description dt:dt=""string"">E-Prime Primary Realtime Clock</Description><StartTime><Timestamp dt:dt=""int"">0</Timestamp><DateUtc dt:dt=""string"">2018-10-11T20:35:57Z</DateUtc></StartTime><FrequencyChanges><FrequencyChange><Frequency dt:dt=""r8"">3020390</Frequency><Timestamp dt:dt=""r8"">50582930071</Timestamp><Current dt:dt=""r8"">0</Current><DateUtc dt:dt=""string"">2018-10-11T20:35:57Z</DateUtc></FrequencyChange></FrequencyChanges></Clock>\n"	Run1_VB_R01_R2proc-18-1	60.022	1.0.0.186	1	-956076074	Professional	2.0.10.356	2.0.10.356	10/11/18	10/11/18 20:35	16:35:58	2.0.10.252	1	0	0	39512	16	39512	3998	-999999	211147	-3	199453	0	Run2Proc	1	1	1	RunList	4	LowLarge	8000	0	139475	0	139475	0	139475	0	C2LowLargeEDBlockProc	n/a	n/a	n/a	4.0	1.0	4.0	n/a	n/a	n/a	n/a	n/a	n/a	n/a	n/a	n/a	Run2BlockList	3	n/a	n/a	n/a	n/a	n/a	n/a	n/a	n/a	n/a	n/a	n/a	n/a	n/a	n/a	n/a	n/a	n/a	n/a	n/a	n/a	n/a	n/a	n/a	n/a	n/a	n/a	n/a	n/a	n/a	n/a	n/a	n/a	n/a	3.0	1.0	3.0	n/a	n/a	n/a	n/a	n/a	n/a	n/a	n/a	n/a	n/a	n/a	n/a	n/a	n/a	n/a	n/a	n/a	n/a	n/a	n/a	n/a	n/a	n/a	n/a	n/a	n/a	n/a	n/a	n/a	n/a	n/a	n/a	n/a	n/a	n/a	n/a	n/a	n/a	n/a	n/a	n/a	n/a	n/a	n/a	n/a	n/a	n/a	n/a	n/a	n/a	n/a	n/a	n/a	n/a	C2_03.jpg	500	1	129979	-1	129978	0	TrialProc1	C2LowLargeEDBlockList	2500	0	127479	0	127479	-1	127479	2499	d	1934	129413	87.969
91	2.5	Run1_VB_R01_R2proc	18	1	"<?xml version=""1.0""?>\n<Clock xmlns:dt=""urn:schemas-microsoft-com:datatypes""><Description dt:dt=""string"">E-Prime Primary Realtime Clock</Description><StartTime><Timestamp dt:dt=""int"">0</Timestamp><DateUtc dt:dt=""string"">2018-10-11T20:35:57Z</DateUtc></StartTime><FrequencyChanges><FrequencyChange><Frequency dt:dt=""r8"">3020390</Frequency><Timestamp dt:dt=""r8"">50582930071</Timestamp><Current dt:dt=""r8"">0</Current><DateUtc dt:dt=""string"">2018-10-11T20:35:57Z</DateUtc></FrequencyChange></FrequencyChanges></Clock>\n"	Run1_VB_R01_R2proc-18-1	60.022	1.0.0.186	1	-956076074	Professional	2.0.10.356	2.0.10.356	10/11/18	10/11/18 20:35	16:35:58	2.0.10.252	1	0	0	39512	16	39512	3998	-999999	211147	-3	199453	0	Run2Proc	1	1	1	RunList	4	LowLarge	8000	0	139475	0	139475	0	139475	0	C2LowLargeEDBlockProc	n/a	n/a	n/a	4.0	1.0	4.0	n/a	n/a	n/a	n/a	n/a	n/a	n/a	n/a	n/a	Run2BlockList	4	n/a	n/a	n/a	n/a	n/a	n/a	n/a	n/a	n/a	n/a	n/a	n/a	n/a	n/a	n/a	n/a	n/a	n/a	n/a	n/a	n/a	n/a	n/a	n/a	n/a	n/a	n/a	n/a	n/a	n/a	n/a	n/a	n/a	4.0	1.0	4.0	n/a	n/a	n/a	n/a	n/a	n/a	n/a	n/a	n/a	n/a	n/a	n/a	n/a	n/a	n/a	n/a	n/a	n/a	n/a	n/a	n/a	n/a	n/a	n/a	n/a	n/a	n/a	n/a	n/a	n/a	n/a	n/a	n/a	n/a	n/a	n/a	n/a	n/a	n/a	n/a	n/a	n/a	n/a	n/a	n/a	n/a	n/a	n/a	n/a	n/a	n/a	n/a	n/a	n/a	C2_04.jpg	500	0	132977	-1	132977	0	TrialProc1	C2LowLargeEDBlockList	2500	0	130478	0	130478	0	130478	2499	d	1246	131724	90.968
94	2.5	Run1_VB_R01_R2proc	18	1	"<?xml version=""1.0""?>\n<Clock xmlns:dt=""urn:schemas-microsoft-com:datatypes""><Description dt:dt=""string"">E-Prime Primary Realtime Clock</Description><StartTime><Timestamp dt:dt=""int"">0</Timestamp><DateUtc dt:dt=""string"">2018-10-11T20:35:57Z</DateUtc></StartTime><FrequencyChanges><FrequencyChange><Frequency dt:dt=""r8"">3020390</Frequency><Timestamp dt:dt=""r8"">50582930071</Timestamp><Current dt:dt=""r8"">0</Current><DateUtc dt:dt=""string"">2018-10-11T20:35:57Z</DateUtc></FrequencyChange></FrequencyChanges></Clock>\n"	Run1_VB_R01_R2proc-18-1	60.022	1.0.0.186	1	-956076074	Professional	2.0.10.356	2.0.10.356	10/11/18	10/11/18 20:35	16:35:58	2.0.10.252	1	0	0	39512	16	39512	3998	-999999	211147	-3	199453	0	Run2Proc	1	1	1	RunList	4	LowLarge	8000	0	139475	0	139475	0	139475	0	C2LowLargeEDBlockProc	n/a	n/a	n/a	4.0	1.0	4.0	n/a	n/a	n/a	n/a	n/a	n/a	n/a	n/a	n/a	Run2BlockList	5	n/a	n/a	n/a	n/a	n/a	n/a	n/a	n/a	n/a	n/a	n/a	n/a	n/a	n/a	n/a	n/a	n/a	n/a	n/a	n/a	n/a	n/a	n/a	n/a	n/a	n/a	n/a	n/a	n/a	n/a	n/a	n/a	n/a	5.0	1.0	5.0	n/a	n/a	n/a	n/a	n/a	n/a	n/a	n/a	n/a	n/a	n/a	n/a	n/a	n/a	n/a	n/a	n/a	n/a	n/a	n/a	n/a	n/a	n/a	n/a	n/a	n/a	n/a	n/a	n/a	n/a	n/a	n/a	n/a	n/a	n/a	n/a	n/a	n/a	n/a	n/a	n/a	n/a	n/a	n/a	n/a	n/a	n/a	n/a	n/a	n/a	n/a	n/a	n/a	n/a	C2_05.jpg	500	0	135976	-1	135976	0	TrialProc1	C2LowLargeEDBlockList	2500	0	133477	0	133477	0	133477	2499	c	991	134468	93.967
97	2.5	Run1_VB_R01_R2proc	18	1	"<?xml version=""1.0""?>\n<Clock xmlns:dt=""urn:schemas-microsoft-com:datatypes""><Description dt:dt=""string"">E-Prime Primary Realtime Clock</Description><StartTime><Timestamp dt:dt=""int"">0</Timestamp><DateUtc dt:dt=""string"">2018-10-11T20:35:57Z</DateUtc></StartTime><FrequencyChanges><FrequencyChange><Frequency dt:dt=""r8"">3020390</Frequency><Timestamp dt:dt=""r8"">50582930071</Timestamp><Current dt:dt=""r8"">0</Current><DateUtc dt:dt=""string"">2018-10-11T20:35:57Z</DateUtc></FrequencyChange></FrequencyChanges></Clock>\n"	Run1_VB_R01_R2proc-18-1	60.022	1.0.0.186	1	-956076074	Professional	2.0.10.356	2.0.10.356	10/11/18	10/11/18 20:35	16:35:58	2.0.10.252	1	0	0	39512	16	39512	3998	-999999	211147	-3	199453	0	Run2Proc	1	1	1	RunList	4	LowLarge	8000	0	139475	0	139475	0	139475	0	C2LowLargeEDBlockProc	n/a	n/a	n/a	4.0	1.0	4.0	n/a	n/a	n/a	n/a	n/a	n/a	n/a	n/a	n/a	Run2BlockList	6	n/a	n/a	n/a	n/a	n/a	n/a	n/a	n/a	n/a	n/a	n/a	n/a	n/a	n/a	n/a	n/a	n/a	n/a	n/a	n/a	n/a	n/a	n/a	n/a	n/a	n/a	n/a	n/a	n/a	n/a	n/a	n/a	n/a	6.0	1.0	6.0	n/a	n/a	n/a	n/a	n/a	n/a	n/a	n/a	n/a	n/a	n/a	n/a	n/a	n/a	n/a	n/a	n/a	n/a	n/a	n/a	n/a	n/a	n/a	n/a	n/a	n/a	n/a	n/a	n/a	n/a	n/a	n/a	n/a	n/a	n/a	n/a	n/a	n/a	n/a	n/a	n/a	n/a	n/a	n/a	n/a	n/a	n/a	n/a	n/a	n/a	n/a	n/a	n/a	n/a	C2_06.jpg	500	0	138975	-1	138975	0	TrialProc1	C2LowLargeEDBlockList	2500	0	136476	0	136476	0	136476	2499	d	1128	137604	96.966
108	2.5	Run1_VB_R01_R2proc	18	1	"<?xml version=""1.0""?>\n<Clock xmlns:dt=""urn:schemas-microsoft-com:datatypes""><Description dt:dt=""string"">E-Prime Primary Realtime Clock</Description><StartTime><Timestamp dt:dt=""int"">0</Timestamp><DateUtc dt:dt=""string"">2018-10-11T20:35:57Z</DateUtc></StartTime><FrequencyChanges><FrequencyChange><Frequency dt:dt=""r8"">3020390</Frequency><Timestamp dt:dt=""r8"">50582930071</Timestamp><Current dt:dt=""r8"">0</Current><DateUtc dt:dt=""string"">2018-10-11T20:35:57Z</DateUtc></FrequencyChange></FrequencyChanges></Clock>\n"	Run1_VB_R01_R2proc-18-1	60.022	1.0.0.186	1	-956076074	Professional	2.0.10.356	2.0.10.356	10/11/18	10/11/18 20:35	16:35:58	2.0.10.252	1	0	0	39512	16	39512	3998	-999999	211147	-3	199453	0	Run2Proc	1	1	1	RunList	5	LowSmall	8000	0	165466	0	165466	0	165466	0	D2LowSmallEDBlockProc	n/a	n/a	n/a	5.0	1.0	5.0	n/a	n/a	n/a	n/a	n/a	n/a	n/a	n/a	n/a	Run2BlockList	1	n/a	n/a	n/a	n/a	n/a	n/a	n/a	n/a	n/a	n/a	n/a	n/a	n/a	n/a	n/a	n/a	n/a	n/a	n/a	n/a	n/a	n/a	n/a	n/a	n/a	n/a	n/a	n/a	n/a	n/a	n/a	n/a	n/a	n/a	n/a	n/a	n/a	n/a	n/a	n/a	n/a	n/a	n/a	n/a	n/a	n/a	n/a	n/a	1.0	1.0	1.0	n/a	n/a	n/a	n/a	n/a	n/a	n/a	n/a	n/a	n/a	n/a	n/a	n/a	n/a	n/a	n/a	n/a	n/a	n/a	n/a	n/a	n/a	n/a	n/a	n/a	n/a	n/a	n/a	n/a	n/a	n/a	n/a	n/a	n/a	n/a	n/a	n/a	n/a	n/a	D2_01.jpg	500	0	149971	-1	149971	0	TrialProc1	D2HighLargeEDBlockList	2500	0	147472	0	147472	-3	147472	2499	n/a	0	0	107.962
111	2.5	Run1_VB_R01_R2proc	18	1	"<?xml version=""1.0""?>\n<Clock xmlns:dt=""urn:schemas-microsoft-com:datatypes""><Description dt:dt=""string"">E-Prime Primary Realtime Clock</Description><StartTime><Timestamp dt:dt=""int"">0</Timestamp><DateUtc dt:dt=""string"">2018-10-11T20:35:57Z</DateUtc></StartTime><FrequencyChanges><FrequencyChange><Frequency dt:dt=""r8"">3020390</Frequency><Timestamp dt:dt=""r8"">50582930071</Timestamp><Current dt:dt=""r8"">0</Current><DateUtc dt:dt=""string"">2018-10-11T20:35:57Z</DateUtc></FrequencyChange></FrequencyChanges></Clock>\n"	Run1_VB_R01_R2proc-18-1	60.022	1.0.0.186	1	-956076074	Professional	2.0.10.356	2.0.10.356	10/11/18	10/11/18 20:35	16:35:58	2.0.10.252	1	0	0	39512	16	39512	3998	-999999	211147	-3	199453	0	Run2Proc	1	1	1	RunList	5	LowSmall	8000	0	165466	0	165466	0	165466	0	D2LowSmallEDBlockProc	n/a	n/a	n/a	5.0	1.0	5.0	n/a	n/a	n/a	n/a	n/a	n/a	n/a	n/a	n/a	Run2BlockList	2	n/a	n/a	n/a	n/a	n/a	n/a	n/a	n/a	n/a	n/a	n/a	n/a	n/a	n/a	n/a	n/a	n/a	n/a	n/a	n/a	n/a	n/a	n/a	n/a	n/a	n/a	n/a	n/a	n/a	n/a	n/a	n/a	n/a	n/a	n/a	n/a	n/a	n/a	n/a	n/a	n/a	n/a	n/a	n/a	n/a	n/a	n/a	n/a	2.0	1.0	2.0	n/a	n/a	n/a	n/a	n/a	n/a	n/a	n/a	n/a	n/a	n/a	n/a	n/a	n/a	n/a	n/a	n/a	n/a	n/a	n/a	n/a	n/a	n/a	n/a	n/a	n/a	n/a	n/a	n/a	n/a	n/a	n/a	n/a	n/a	n/a	n/a	n/a	n/a	n/a	D2_02.jpg	500	0	152970	-1	152970	0	TrialProc1	D2HighLargeEDBlockList	2500	0	150471	0	150471	0	150471	2499	d	1133	151604	110.961
114	2.5	Run1_VB_R01_R2proc	18	1	"<?xml version=""1.0""?>\n<Clock xmlns:dt=""urn:schemas-microsoft-com:datatypes""><Description dt:dt=""string"">E-Prime Primary Realtime Clock</Description><StartTime><Timestamp dt:dt=""int"">0</Timestamp><DateUtc dt:dt=""string"">2018-10-11T20:35:57Z</DateUtc></StartTime><FrequencyChanges><FrequencyChange><Frequency dt:dt=""r8"">3020390</Frequency><Timestamp dt:dt=""r8"">50582930071</Timestamp><Current dt:dt=""r8"">0</Current><DateUtc dt:dt=""string"">2018-10-11T20:35:57Z</DateUtc></FrequencyChange></FrequencyChanges></Clock>\n"	Run1_VB_R01_R2proc-18-1	60.022	1.0.0.186	1	-956076074	Professional	2.0.10.356	2.0.10.356	10/11/18	10/11/18 20:35	16:35:58	2.0.10.252	1	0	0	39512	16	39512	3998	-999999	211147	-3	199453	0	Run2Proc	1	1	1	RunList	5	LowSmall	8000	0	165466	0	165466	0	165466	0	D2LowSmallEDBlockProc	n/a	n/a	n/a	5.0	1.0	5.0	n/a	n/a	n/a	n/a	n/a	n/a	n/a	n/a	n/a	Run2BlockList	3	n/a	n/a	n/a	n/a	n/a	n/a	n/a	n/a	n/a	n/a	n/a	n/a	n/a	n/a	n/a	n/a	n/a	n/a	n/a	n/a	n/a	n/a	n/a	n/a	n/a	n/a	n/a	n/a	n/a	n/a	n/a	n/a	n/a	n/a	n/a	n/a	n/a	n/a	n/a	n/a	n/a	n/a	n/a	n/a	n/a	n/a	n/a	n/a	3.0	1.0	3.0	n/a	n/a	n/a	n/a	n/a	n/a	n/a	n/a	n/a	n/a	n/a	n/a	n/a	n/a	n/a	n/a	n/a	n/a	n/a	n/a	n/a	n/a	n/a	n/a	n/a	n/a	n/a	n/a	n/a	n/a	n/a	n/a	n/a	n/a	n/a	n/a	n/a	n/a	n/a	D2_03.jpg	500	0	155969	-1	155969	0	TrialProc1	D2HighLargeEDBlockList	2500	0	153470	0	153470	0	153470	2499	d	902	154372	113.96
117	2.5	Run1_VB_R01_R2proc	18	1	"<?xml version=""1.0""?>\n<Clock xmlns:dt=""urn:schemas-microsoft-com:datatypes""><Description dt:dt=""string"">E-Prime Primary Realtime Clock</Description><StartTime><Timestamp dt:dt=""int"">0</Timestamp><DateUtc dt:dt=""string"">2018-10-11T20:35:57Z</DateUtc></StartTime><FrequencyChanges><FrequencyChange><Frequency dt:dt=""r8"">3020390</Frequency><Timestamp dt:dt=""r8"">50582930071</Timestamp><Current dt:dt=""r8"">0</Current><DateUtc dt:dt=""string"">2018-10-11T20:35:57Z</DateUtc></FrequencyChange></FrequencyChanges></Clock>\n"	Run1_VB_R01_R2proc-18-1	60.022	1.0.0.186	1	-956076074	Professional	2.0.10.356	2.0.10.356	10/11/18	10/11/18 20:35	16:35:58	2.0.10.252	1	0	0	39512	16	39512	3998	-999999	211147	-3	199453	0	Run2Proc	1	1	1	RunList	5	LowSmall	8000	0	165466	0	165466	0	165466	0	D2LowSmallEDBlockProc	n/a	n/a	n/a	5.0	1.0	5.0	n/a	n/a	n/a	n/a	n/a	n/a	n/a	n/a	n/a	Run2BlockList	4	n/a	n/a	n/a	n/a	n/a	n/a	n/a	n/a	n/a	n/a	n/a	n/a	n/a	n/a	n/a	n/a	n/a	n/a	n/a	n/a	n/a	n/a	n/a	n/a	n/a	n/a	n/a	n/a	n/a	n/a	n/a	n/a	n/a	n/a	n/a	n/a	n/a	n/a	n/a	n/a	n/a	n/a	n/a	n/a	n/a	n/a	n/a	n/a	4.0	1.0	4.0	n/a	n/a	n/a	n/a	n/a	n/a	n/a	n/a	n/a	n/a	n/a	n/a	n/a	n/a	n/a	n/a	n/a	n/a	n/a	n/a	n/a	n/a	n/a	n/a	n/a	n/a	n/a	n/a	n/a	n/a	n/a	n/a	n/a	n/a	n/a	n/a	n/a	n/a	n/a	D2_04.jpg	500	0	158968	-1	158968	0	TrialProc1	D2HighLargeEDBlockList	2500	0	156469	0	156469	0	156469	2499	d	935	157404	116.959
120	2.5	Run1_VB_R01_R2proc	18	1	"<?xml version=""1.0""?>\n<Clock xmlns:dt=""urn:schemas-microsoft-com:datatypes""><Description dt:dt=""string"">E-Prime Primary Realtime Clock</Description><StartTime><Timestamp dt:dt=""int"">0</Timestamp><DateUtc dt:dt=""string"">2018-10-11T20:35:57Z</DateUtc></StartTime><FrequencyChanges><FrequencyChange><Frequency dt:dt=""r8"">3020390</Frequency><Timestamp dt:dt=""r8"">50582930071</Timestamp><Current dt:dt=""r8"">0</Current><DateUtc dt:dt=""string"">2018-10-11T20:35:57Z</DateUtc></FrequencyChange></FrequencyChanges></Clock>\n"	Run1_VB_R01_R2proc-18-1	60.022	1.0.0.186	1	-956076074	Professional	2.0.10.356	2.0.10.356	10/11/18	10/11/18 20:35	16:35:58	2.0.10.252	1	0	0	39512	16	39512	3998	-999999	211147	-3	199453	0	Run2Proc	1	1	1	RunList	5	LowSmall	8000	0	165466	0	165466	0	165466	0	D2LowSmallEDBlockProc	n/a	n/a	n/a	5.0	1.0	5.0	n/a	n/a	n/a	n/a	n/a	n/a	n/a	n/a	n/a	Run2BlockList	5	n/a	n/a	n/a	n/a	n/a	n/a	n/a	n/a	n/a	n/a	n/a	n/a	n/a	n/a	n/a	n/a	n/a	n/a	n/a	n/a	n/a	n/a	n/a	n/a	n/a	n/a	n/a	n/a	n/a	n/a	n/a	n/a	n/a	n/a	n/a	n/a	n/a	n/a	n/a	n/a	n/a	n/a	n/a	n/a	n/a	n/a	n/a	n/a	5.0	1.0	5.0	n/a	n/a	n/a	n/a	n/a	n/a	n/a	n/a	n/a	n/a	n/a	n/a	n/a	n/a	n/a	n/a	n/a	n/a	n/a	n/a	n/a	n/a	n/a	n/a	n/a	n/a	n/a	n/a	n/a	n/a	n/a	n/a	n/a	n/a	n/a	n/a	n/a	n/a	n/a	D2_05.jpg	500	0	161967	-1	161967	0	TrialProc1	D2HighLargeEDBlockList	2500	0	159468	0	159468	0	159468	2499	d	856	160324	119.958
123	2.5	Run1_VB_R01_R2proc	18	1	"<?xml version=""1.0""?>\n<Clock xmlns:dt=""urn:schemas-microsoft-com:datatypes""><Description dt:dt=""string"">E-Prime Primary Realtime Clock</Description><StartTime><Timestamp dt:dt=""int"">0</Timestamp><DateUtc dt:dt=""string"">2018-10-11T20:35:57Z</DateUtc></StartTime><FrequencyChanges><FrequencyChange><Frequency dt:dt=""r8"">3020390</Frequency><Timestamp dt:dt=""r8"">50582930071</Timestamp><Current dt:dt=""r8"">0</Current><DateUtc dt:dt=""string"">2018-10-11T20:35:57Z</DateUtc></FrequencyChange></FrequencyChanges></Clock>\n"	Run1_VB_R01_R2proc-18-1	60.022	1.0.0.186	1	-956076074	Professional	2.0.10.356	2.0.10.356	10/11/18	10/11/18 20:35	16:35:58	2.0.10.252	1	0	0	39512	16	39512	3998	-999999	211147	-3	199453	0	Run2Proc	1	1	1	RunList	5	LowSmall	8000	0	165466	0	165466	0	165466	0	D2LowSmallEDBlockProc	n/a	n/a	n/a	5.0	1.0	5.0	n/a	n/a	n/a	n/a	n/a	n/a	n/a	n/a	n/a	Run2BlockList	6	n/a	n/a	n/a	n/a	n/a	n/a	n/a	n/a	n/a	n/a	n/a	n/a	n/a	n/a	n/a	n/a	n/a	n/a	n/a	n/a	n/a	n/a	n/a	n/a	n/a	n/a	n/a	n/a	n/a	n/a	n/a	n/a	n/a	n/a	n/a	n/a	n/a	n/a	n/a	n/a	n/a	n/a	n/a	n/a	n/a	n/a	n/a	n/a	6.0	1.0	6.0	n/a	n/a	n/a	n/a	n/a	n/a	n/a	n/a	n/a	n/a	n/a	n/a	n/a	n/a	n/a	n/a	n/a	n/a	n/a	n/a	n/a	n/a	n/a	n/a	n/a	n/a	n/a	n/a	n/a	n/a	n/a	n/a	n/a	n/a	n/a	n/a	n/a	n/a	n/a	D2_06.jpg	500	0	164966	-1	164966	0	TrialProc1	D2HighLargeEDBlockList	2500	0	162467	0	162467	0	162467	2499	d	1873	164340	122.957
134	2.5	Run1_VB_R01_R2proc	18	1	"<?xml version=""1.0""?>\n<Clock xmlns:dt=""urn:schemas-microsoft-com:datatypes""><Description dt:dt=""string"">E-Prime Primary Realtime Clock</Description><StartTime><Timestamp dt:dt=""int"">0</Timestamp><DateUtc dt:dt=""string"">2018-10-11T20:35:57Z</DateUtc></StartTime><FrequencyChanges><FrequencyChange><Frequency dt:dt=""r8"">3020390</Frequency><Timestamp dt:dt=""r8"">50582930071</Timestamp><Current dt:dt=""r8"">0</Current><DateUtc dt:dt=""string"">2018-10-11T20:35:57Z</DateUtc></FrequencyChange></FrequencyChanges></Clock>\n"	Run1_VB_R01_R2proc-18-1	60.022	1.0.0.186	1	-956076074	Professional	2.0.10.356	2.0.10.356	10/11/18	10/11/18 20:35	16:35:58	2.0.10.252	1	0	0	39512	16	39512	3998	-999999	211147	-3	199453	0	Run2Proc	1	1	1	RunList	6	OfficeSmall	8000	0	191456	0	191456	0	191456	0	F2OfficeSmallBlockProc	n/a	n/a	n/a	6.0	1.0	6.0	n/a	n/a	n/a	n/a	n/a	n/a	n/a	n/a	n/a	Run2BlockList	1	n/a	n/a	n/a	n/a	n/a	n/a	n/a	n/a	n/a	n/a	n/a	n/a	n/a	n/a	n/a	n/a	n/a	n/a	n/a	n/a	n/a	n/a	n/a	n/a	n/a	n/a	n/a	n/a	n/a	n/a	n/a	n/a	n/a	n/a	n/a	n/a	n/a	n/a	n/a	n/a	n/a	n/a	n/a	n/a	n/a	n/a	n/a	n/a	n/a	n/a	n/a	n/a	n/a	n/a	n/a	n/a	n/a	n/a	n/a	n/a	n/a	n/a	n/a	n/a	n/a	n/a	n/a	n/a	n/a	n/a	n/a	n/a	n/a	n/a	n/a	n/a	n/a	n/a	1.0	1.0	1.0	n/a	n/a	n/a	n/a	n/a	n/a	n/a	n/a	n/a	F2_01.jpg	500	0	175962	-1	175962	0	TrialProc1	F2OfficeSmallBlockList	2500	0	173463	0	173463	-3	173463	2499	c	2229	175692	133.953
137	2.5	Run1_VB_R01_R2proc	18	1	"<?xml version=""1.0""?>\n<Clock xmlns:dt=""urn:schemas-microsoft-com:datatypes""><Description dt:dt=""string"">E-Prime Primary Realtime Clock</Description><StartTime><Timestamp dt:dt=""int"">0</Timestamp><DateUtc dt:dt=""string"">2018-10-11T20:35:57Z</DateUtc></StartTime><FrequencyChanges><FrequencyChange><Frequency dt:dt=""r8"">3020390</Frequency><Timestamp dt:dt=""r8"">50582930071</Timestamp><Current dt:dt=""r8"">0</Current><DateUtc dt:dt=""string"">2018-10-11T20:35:57Z</DateUtc></FrequencyChange></FrequencyChanges></Clock>\n"	Run1_VB_R01_R2proc-18-1	60.022	1.0.0.186	1	-956076074	Professional	2.0.10.356	2.0.10.356	10/11/18	10/11/18 20:35	16:35:58	2.0.10.252	1	0	0	39512	16	39512	3998	-999999	211147	-3	199453	0	Run2Proc	1	1	1	RunList	6	OfficeSmall	8000	0	191456	0	191456	0	191456	0	F2OfficeSmallBlockProc	n/a	n/a	n/a	6.0	1.0	6.0	n/a	n/a	n/a	n/a	n/a	n/a	n/a	n/a	n/a	Run2BlockList	2	n/a	n/a	n/a	n/a	n/a	n/a	n/a	n/a	n/a	n/a	n/a	n/a	n/a	n/a	n/a	n/a	n/a	n/a	n/a	n/a	n/a	n/a	n/a	n/a	n/a	n/a	n/a	n/a	n/a	n/a	n/a	n/a	n/a	n/a	n/a	n/a	n/a	n/a	n/a	n/a	n/a	n/a	n/a	n/a	n/a	n/a	n/a	n/a	n/a	n/a	n/a	n/a	n/a	n/a	n/a	n/a	n/a	n/a	n/a	n/a	n/a	n/a	n/a	n/a	n/a	n/a	n/a	n/a	n/a	n/a	n/a	n/a	n/a	n/a	n/a	n/a	n/a	n/a	2.0	1.0	2.0	n/a	n/a	n/a	n/a	n/a	n/a	n/a	n/a	n/a	F2_02.jpg	500	0	178961	-1	178961	0	TrialProc1	F2OfficeSmallBlockList	2500	0	176462	0	176462	0	176462	2499	c	1830	178292	136.952
140	2.5	Run1_VB_R01_R2proc	18	1	"<?xml version=""1.0""?>\n<Clock xmlns:dt=""urn:schemas-microsoft-com:datatypes""><Description dt:dt=""string"">E-Prime Primary Realtime Clock</Description><StartTime><Timestamp dt:dt=""int"">0</Timestamp><DateUtc dt:dt=""string"">2018-10-11T20:35:57Z</DateUtc></StartTime><FrequencyChanges><FrequencyChange><Frequency dt:dt=""r8"">3020390</Frequency><Timestamp dt:dt=""r8"">50582930071</Timestamp><Current dt:dt=""r8"">0</Current><DateUtc dt:dt=""string"">2018-10-11T20:35:57Z</DateUtc></FrequencyChange></FrequencyChanges></Clock>\n"	Run1_VB_R01_R2proc-18-1	60.022	1.0.0.186	1	-956076074	Professional	2.0.10.356	2.0.10.356	10/11/18	10/11/18 20:35	16:35:58	2.0.10.252	1	0	0	39512	16	39512	3998	-999999	211147	-3	199453	0	Run2Proc	1	1	1	RunList	6	OfficeSmall	8000	0	191456	0	191456	0	191456	0	F2OfficeSmallBlockProc	n/a	n/a	n/a	6.0	1.0	6.0	n/a	n/a	n/a	n/a	n/a	n/a	n/a	n/a	n/a	Run2BlockList	3	n/a	n/a	n/a	n/a	n/a	n/a	n/a	n/a	n/a	n/a	n/a	n/a	n/a	n/a	n/a	n/a	n/a	n/a	n/a	n/a	n/a	n/a	n/a	n/a	n/a	n/a	n/a	n/a	n/a	n/a	n/a	n/a	n/a	n/a	n/a	n/a	n/a	n/a	n/a	n/a	n/a	n/a	n/a	n/a	n/a	n/a	n/a	n/a	n/a	n/a	n/a	n/a	n/a	n/a	n/a	n/a	n/a	n/a	n/a	n/a	n/a	n/a	n/a	n/a	n/a	n/a	n/a	n/a	n/a	n/a	n/a	n/a	n/a	n/a	n/a	n/a	n/a	n/a	3.0	1.0	3.0	n/a	n/a	n/a	n/a	n/a	n/a	n/a	n/a	n/a	F2_03.jpg	500	1	181960	-1	181959	0	TrialProc1	F2OfficeSmallBlockList	2500	0	179460	0	179460	-1	179460	2499	d	1824	181284	139.95
143	2.5	Run1_VB_R01_R2proc	18	1	"<?xml version=""1.0""?>\n<Clock xmlns:dt=""urn:schemas-microsoft-com:datatypes""><Description dt:dt=""string"">E-Prime Primary Realtime Clock</Description><StartTime><Timestamp dt:dt=""int"">0</Timestamp><DateUtc dt:dt=""string"">2018-10-11T20:35:57Z</DateUtc></StartTime><FrequencyChanges><FrequencyChange><Frequency dt:dt=""r8"">3020390</Frequency><Timestamp dt:dt=""r8"">50582930071</Timestamp><Current dt:dt=""r8"">0</Current><DateUtc dt:dt=""string"">2018-10-11T20:35:57Z</DateUtc></FrequencyChange></FrequencyChanges></Clock>\n"	Run1_VB_R01_R2proc-18-1	60.022	1.0.0.186	1	-956076074	Professional	2.0.10.356	2.0.10.356	10/11/18	10/11/18 20:35	16:35:58	2.0.10.252	1	0	0	39512	16	39512	3998	-999999	211147	-3	199453	0	Run2Proc	1	1	1	RunList	6	OfficeSmall	8000	0	191456	0	191456	0	191456	0	F2OfficeSmallBlockProc	n/a	n/a	n/a	6.0	1.0	6.0	n/a	n/a	n/a	n/a	n/a	n/a	n/a	n/a	n/a	Run2BlockList	4	n/a	n/a	n/a	n/a	n/a	n/a	n/a	n/a	n/a	n/a	n/a	n/a	n/a	n/a	n/a	n/a	n/a	n/a	n/a	n/a	n/a	n/a	n/a	n/a	n/a	n/a	n/a	n/a	n/a	n/a	n/a	n/a	n/a	n/a	n/a	n/a	n/a	n/a	n/a	n/a	n/a	n/a	n/a	n/a	n/a	n/a	n/a	n/a	n/a	n/a	n/a	n/a	n/a	n/a	n/a	n/a	n/a	n/a	n/a	n/a	n/a	n/a	n/a	n/a	n/a	n/a	n/a	n/a	n/a	n/a	n/a	n/a	n/a	n/a	n/a	n/a	n/a	n/a	4.0	1.0	4.0	n/a	n/a	n/a	n/a	n/a	n/a	n/a	n/a	n/a	F2_04.jpg	500	0	184958	-1	184958	0	TrialProc1	F2OfficeSmallBlockList	2500	0	182459	0	182459	0	182459	2499	c	1545	184004	142.949
146	2.5	Run1_VB_R01_R2proc	18	1	"<?xml version=""1.0""?>\n<Clock xmlns:dt=""urn:schemas-microsoft-com:datatypes""><Description dt:dt=""string"">E-Prime Primary Realtime Clock</Description><StartTime><Timestamp dt:dt=""int"">0</Timestamp><DateUtc dt:dt=""string"">2018-10-11T20:35:57Z</DateUtc></StartTime><FrequencyChanges><FrequencyChange><Frequency dt:dt=""r8"">3020390</Frequency><Timestamp dt:dt=""r8"">50582930071</Timestamp><Current dt:dt=""r8"">0</Current><DateUtc dt:dt=""string"">2018-10-11T20:35:57Z</DateUtc></FrequencyChange></FrequencyChanges></Clock>\n"	Run1_VB_R01_R2proc-18-1	60.022	1.0.0.186	1	-956076074	Professional	2.0.10.356	2.0.10.356	10/11/18	10/11/18 20:35	16:35:58	2.0.10.252	1	0	0	39512	16	39512	3998	-999999	211147	-3	199453	0	Run2Proc	1	1	1	RunList	6	OfficeSmall	8000	0	191456	0	191456	0	191456	0	F2OfficeSmallBlockProc	n/a	n/a	n/a	6.0	1.0	6.0	n/a	n/a	n/a	n/a	n/a	n/a	n/a	n/a	n/a	Run2BlockList	5	n/a	n/a	n/a	n/a	n/a	n/a	n/a	n/a	n/a	n/a	n/a	n/a	n/a	n/a	n/a	n/a	n/a	n/a	n/a	n/a	n/a	n/a	n/a	n/a	n/a	n/a	n/a	n/a	n/a	n/a	n/a	n/a	n/a	n/a	n/a	n/a	n/a	n/a	n/a	n/a	n/a	n/a	n/a	n/a	n/a	n/a	n/a	n/a	n/a	n/a	n/a	n/a	n/a	n/a	n/a	n/a	n/a	n/a	n/a	n/a	n/a	n/a	n/a	n/a	n/a	n/a	n/a	n/a	n/a	n/a	n/a	n/a	n/a	n/a	n/a	n/a	n/a	n/a	5.0	1.0	5.0	n/a	n/a	n/a	n/a	n/a	n/a	n/a	n/a	n/a	F2_05.jpg	500	0	187957	-1	187957	0	TrialProc1	F2OfficeSmallBlockList	2500	0	185458	0	185458	0	185458	2499	c	1010	186468	145.948
149	2.5	Run1_VB_R01_R2proc	18	1	"<?xml version=""1.0""?>\n<Clock xmlns:dt=""urn:schemas-microsoft-com:datatypes""><Description dt:dt=""string"">E-Prime Primary Realtime Clock</Description><StartTime><Timestamp dt:dt=""int"">0</Timestamp><DateUtc dt:dt=""string"">2018-10-11T20:35:57Z</DateUtc></StartTime><FrequencyChanges><FrequencyChange><Frequency dt:dt=""r8"">3020390</Frequency><Timestamp dt:dt=""r8"">50582930071</Timestamp><Current dt:dt=""r8"">0</Current><DateUtc dt:dt=""string"">2018-10-11T20:35:57Z</DateUtc></FrequencyChange></FrequencyChanges></Clock>\n"	Run1_VB_R01_R2proc-18-1	60.022	1.0.0.186	1	-956076074	Professional	2.0.10.356	2.0.10.356	10/11/18	10/11/18 20:35	16:35:58	2.0.10.252	1	0	0	39512	16	39512	3998	-999999	211147	-3	199453	0	Run2Proc	1	1	1	RunList	6	OfficeSmall	8000	0	191456	0	191456	0	191456	0	F2OfficeSmallBlockProc	n/a	n/a	n/a	6.0	1.0	6.0	n/a	n/a	n/a	n/a	n/a	n/a	n/a	n/a	n/a	Run2BlockList	6	n/a	n/a	n/a	n/a	n/a	n/a	n/a	n/a	n/a	n/a	n/a	n/a	n/a	n/a	n/a	n/a	n/a	n/a	n/a	n/a	n/a	n/a	n/a	n/a	n/a	n/a	n/a	n/a	n/a	n/a	n/a	n/a	n/a	n/a	n/a	n/a	n/a	n/a	n/a	n/a	n/a	n/a	n/a	n/a	n/a	n/a	n/a	n/a	n/a	n/a	n/a	n/a	n/a	n/a	n/a	n/a	n/a	n/a	n/a	n/a	n/a	n/a	n/a	n/a	n/a	n/a	n/a	n/a	n/a	n/a	n/a	n/a	n/a	n/a	n/a	n/a	n/a	n/a	6.0	1.0	6.0	n/a	n/a	n/a	n/a	n/a	n/a	n/a	n/a	n/a	F2_06.jpg	500	0	190956	-1	190956	0	TrialProc1	F2OfficeSmallBlockList	2500	0	188457	0	188457	0	188457	2499	c	947	189404	148.947
