onset	duration	experiment_name	sub	ses	clock_information	datafile_basename	display_refreshrate	experiment_version	group	randomseed	runtime_capabilities	runtime_version	runtimeversionexpected	session_date	session_start_date_time_utc	session_time	studio_version	block	fixation2trs_durationerror	fixation2trs_offsetdelay	fixation2trs_offsettime	fixation2trs_onsetdelay	fixation2trs_onsettime	fixation2trs_onsettoonsettime	goodwork_durationerror	goodwork_finishtime	goodwork_onsetdelay	goodwork_onsettime	goodwork_onsettoonsettime	procedure_block	runlist	runlist_cycle	runlist_sample	running_block	trial	condition	interblockinterval_duration	interblockinterval_durationerror	interblockinterval_finishtime	interblockinterval_offsetdelay	interblockinterval_offsettime	interblockinterval_onsetdelay	interblockinterval_onsettime	interblockinterval_onsettoonsettime	procedure_trial	run1blocklist	run1blocklist_cycle	run1blocklist_sample	run3blocklist	run3blocklist_cycle	run3blocklist_sample	running_trial	subtrial	a1highlargeedblocklist	a1highlargeedblocklist_cycle	a1highlargeedblocklist_sample	a3highlargeedblocklist	a3highlargeedblocklist_cycle	a3highlargeedblocklist_sample	b1highsmalledblocklist	b1highsmalledblocklist_cycle	b1highsmalledblocklist_sample	b3highsmalledblocklist	b3highsmalledblocklist_cycle	b3highsmalledblocklist_sample	c1lowlargeedblocklist	c1lowlargeedblocklist_cycle	c1lowlargeedblocklist_sample	c3lowlargeedblocklist	c3lowlargeedblocklist_cycle	c3lowlargeedblocklist_sample	d1lowsmalledblocklist	d1lowsmalledblocklist_cycle	d1lowsmalledblocklist_sample	d3lowsmalledblocklist	d3lowsmalledblocklist_cycle	d3lowsmalledblocklist_sample	e1officelargeblocklist	e1officelargeblocklist_cycle	e1officelargeblocklist_sample	e3officelargeblocklist	e3officelargeblocklist_cycle	e3officelargeblocklist_sample	f1officesmallblocklist	f1officesmallblocklist_cycle	f1officesmallblocklist_sample	f3officesmallblocklist	f3officesmallblocklist_cycle	f3officesmallblocklist_sample	filename	isi_duration	isi_durationerror	isi_finishtime	isi_onsetdelay	isi_onsettime	isi_onsettoonsettime	procedure_subtrial	running_subtrial	stimslide_duration	stimslide_durationerror	stimslide_finishtime	stimslide_offsetdelay	stimslide_offsettime	stimslide_onsetdelay	stimslide_onsettime	stimslide_onsettoonsettime	stimslide_resp	stimslide_rt	stimslide_rttime	onset_unrounded
4	2.5	000_R01_VA_allProc	116	1	"<?xml version=""1.0""?>\n<Clock xmlns:dt=""urn:schemas-microsoft-com:datatypes""><Description dt:dt=""string"">E-Prime Primary Realtime Clock</Description><StartTime><Timestamp dt:dt=""int"">0</Timestamp><DateUtc dt:dt=""string"">2021-08-10T17:13:23Z</DateUtc></StartTime><FrequencyChanges><FrequencyChange><Frequency dt:dt=""r8"">3020390</Frequency><Timestamp dt:dt=""r8"">4705180895101</Timestamp><Current dt:dt=""r8"">0</Current><DateUtc dt:dt=""string"">2021-08-10T17:13:23Z</DateUtc></FrequencyChange></FrequencyChanges></Clock>\n"	000_R01_VA_allProc-116-1	60.001	1.0.0.229	1	-2102657846	Professional	2.0.10.356	2.0.10.356	08-10-2021	8/10/2021 5:13:23 PM	13:13:23	2.0.10.252	1	0.0	0.0	91678.0	26.0	91678.0	3999.0	-999999.0	257213.0	0.0	251675.0	0.0	Run1Proc	1	1	1	RunList	1.0	HighLargeED	8000.0	0.0	113677.0	0.0	113677.0	0.0	113677.0	0.0	A1HighLargeEDBlockProc	1.0	1.0	1.0	n/a	n/a	n/a	Run1BlockList	1.0	1.0	1.0	1.0	n/a	n/a	n/a	n/a	n/a	n/a	n/a	n/a	n/a	n/a	n/a	n/a	n/a	n/a	n/a	n/a	n/a	n/a	n/a	n/a	n/a	n/a	n/a	n/a	n/a	n/a	n/a	n/a	n/a	n/a	n/a	n/a	n/a	A1_01.jpg	500.0	1.0	98178.0	0.0	98177.0	0.0	TrialProc1	A1HighLargeEDBlockList	2500.0	1.0	95678.0	1.0	95678.0	-1.0	95677.0	2500.0	d	2346.0	98023.0	4.0
7	2.5	000_R01_VA_allProc	116	1	"<?xml version=""1.0""?>\n<Clock xmlns:dt=""urn:schemas-microsoft-com:datatypes""><Description dt:dt=""string"">E-Prime Primary Realtime Clock</Description><StartTime><Timestamp dt:dt=""int"">0</Timestamp><DateUtc dt:dt=""string"">2021-08-10T17:13:23Z</DateUtc></StartTime><FrequencyChanges><FrequencyChange><Frequency dt:dt=""r8"">3020390</Frequency><Timestamp dt:dt=""r8"">4705180895101</Timestamp><Current dt:dt=""r8"">0</Current><DateUtc dt:dt=""string"">2021-08-10T17:13:23Z</DateUtc></FrequencyChange></FrequencyChanges></Clock>\n"	000_R01_VA_allProc-116-1	60.001	1.0.0.229	1	-2102657846	Professional	2.0.10.356	2.0.10.356	08-10-2021	8/10/2021 5:13:23 PM	13:13:23	2.0.10.252	1	0.0	0.0	91678.0	26.0	91678.0	3999.0	-999999.0	257213.0	0.0	251675.0	0.0	Run1Proc	1	1	1	RunList	1.0	HighLargeED	8000.0	0.0	113677.0	0.0	113677.0	0.0	113677.0	0.0	A1HighLargeEDBlockProc	1.0	1.0	1.0	n/a	n/a	n/a	Run1BlockList	2.0	2.0	1.0	2.0	n/a	n/a	n/a	n/a	n/a	n/a	n/a	n/a	n/a	n/a	n/a	n/a	n/a	n/a	n/a	n/a	n/a	n/a	n/a	n/a	n/a	n/a	n/a	n/a	n/a	n/a	n/a	n/a	n/a	n/a	n/a	n/a	n/a	A1_02.jpg	500.0	0.0	101177.0	0.0	101177.0	0.0	TrialProc1	A1HighLargeEDBlockList	2500.0	0.0	98678.0	0.0	98677.0	0.0	98677.0	2500.0	c	1338.0	100015.0	7.0
10	2.5	000_R01_VA_allProc	116	1	"<?xml version=""1.0""?>\n<Clock xmlns:dt=""urn:schemas-microsoft-com:datatypes""><Description dt:dt=""string"">E-Prime Primary Realtime Clock</Description><StartTime><Timestamp dt:dt=""int"">0</Timestamp><DateUtc dt:dt=""string"">2021-08-10T17:13:23Z</DateUtc></StartTime><FrequencyChanges><FrequencyChange><Frequency dt:dt=""r8"">3020390</Frequency><Timestamp dt:dt=""r8"">4705180895101</Timestamp><Current dt:dt=""r8"">0</Current><DateUtc dt:dt=""string"">2021-08-10T17:13:23Z</DateUtc></FrequencyChange></FrequencyChanges></Clock>\n"	000_R01_VA_allProc-116-1	60.001	1.0.0.229	1	-2102657846	Professional	2.0.10.356	2.0.10.356	08-10-2021	8/10/2021 5:13:23 PM	13:13:23	2.0.10.252	1	0.0	0.0	91678.0	26.0	91678.0	3999.0	-999999.0	257213.0	0.0	251675.0	0.0	Run1Proc	1	1	1	RunList	1.0	HighLargeED	8000.0	0.0	113677.0	0.0	113677.0	0.0	113677.0	0.0	A1HighLargeEDBlockProc	1.0	1.0	1.0	n/a	n/a	n/a	Run1BlockList	3.0	3.0	1.0	3.0	n/a	n/a	n/a	n/a	n/a	n/a	n/a	n/a	n/a	n/a	n/a	n/a	n/a	n/a	n/a	n/a	n/a	n/a	n/a	n/a	n/a	n/a	n/a	n/a	n/a	n/a	n/a	n/a	n/a	n/a	n/a	n/a	n/a	A1_03.jpg	500.0	0.0	104177.0	0.0	104177.0	0.0	TrialProc1	A1HighLargeEDBlockList	2500.0	0.0	101677.0	0.0	101677.0	0.0	101677.0	2500.0	c	1706.0	103383.0	10.0
13	2.5	000_R01_VA_allProc	116	1	"<?xml version=""1.0""?>\n<Clock xmlns:dt=""urn:schemas-microsoft-com:datatypes""><Description dt:dt=""string"">E-Prime Primary Realtime Clock</Description><StartTime><Timestamp dt:dt=""int"">0</Timestamp><DateUtc dt:dt=""string"">2021-08-10T17:13:23Z</DateUtc></StartTime><FrequencyChanges><FrequencyChange><Frequency dt:dt=""r8"">3020390</Frequency><Timestamp dt:dt=""r8"">4705180895101</Timestamp><Current dt:dt=""r8"">0</Current><DateUtc dt:dt=""string"">2021-08-10T17:13:23Z</DateUtc></FrequencyChange></FrequencyChanges></Clock>\n"	000_R01_VA_allProc-116-1	60.001	1.0.0.229	1	-2102657846	Professional	2.0.10.356	2.0.10.356	08-10-2021	8/10/2021 5:13:23 PM	13:13:23	2.0.10.252	1	0.0	0.0	91678.0	26.0	91678.0	3999.0	-999999.0	257213.0	0.0	251675.0	0.0	Run1Proc	1	1	1	RunList	1.0	HighLargeED	8000.0	0.0	113677.0	0.0	113677.0	0.0	113677.0	0.0	A1HighLargeEDBlockProc	1.0	1.0	1.0	n/a	n/a	n/a	Run1BlockList	4.0	4.0	1.0	4.0	n/a	n/a	n/a	n/a	n/a	n/a	n/a	n/a	n/a	n/a	n/a	n/a	n/a	n/a	n/a	n/a	n/a	n/a	n/a	n/a	n/a	n/a	n/a	n/a	n/a	n/a	n/a	n/a	n/a	n/a	n/a	n/a	n/a	A1_04.jpg	500.0	0.0	107177.0	0.0	107177.0	0.0	TrialProc1	A1HighLargeEDBlockList	2500.0	0.0	104677.0	0.0	104677.0	0.0	104677.0	2500.0	d	1002.0	105679.0	13.0
16	2.5	000_R01_VA_allProc	116	1	"<?xml version=""1.0""?>\n<Clock xmlns:dt=""urn:schemas-microsoft-com:datatypes""><Description dt:dt=""string"">E-Prime Primary Realtime Clock</Description><StartTime><Timestamp dt:dt=""int"">0</Timestamp><DateUtc dt:dt=""string"">2021-08-10T17:13:23Z</DateUtc></StartTime><FrequencyChanges><FrequencyChange><Frequency dt:dt=""r8"">3020390</Frequency><Timestamp dt:dt=""r8"">4705180895101</Timestamp><Current dt:dt=""r8"">0</Current><DateUtc dt:dt=""string"">2021-08-10T17:13:23Z</DateUtc></FrequencyChange></FrequencyChanges></Clock>\n"	000_R01_VA_allProc-116-1	60.001	1.0.0.229	1	-2102657846	Professional	2.0.10.356	2.0.10.356	08-10-2021	8/10/2021 5:13:23 PM	13:13:23	2.0.10.252	1	0.0	0.0	91678.0	26.0	91678.0	3999.0	-999999.0	257213.0	0.0	251675.0	0.0	Run1Proc	1	1	1	RunList	1.0	HighLargeED	8000.0	0.0	113677.0	0.0	113677.0	0.0	113677.0	0.0	A1HighLargeEDBlockProc	1.0	1.0	1.0	n/a	n/a	n/a	Run1BlockList	5.0	5.0	1.0	5.0	n/a	n/a	n/a	n/a	n/a	n/a	n/a	n/a	n/a	n/a	n/a	n/a	n/a	n/a	n/a	n/a	n/a	n/a	n/a	n/a	n/a	n/a	n/a	n/a	n/a	n/a	n/a	n/a	n/a	n/a	n/a	n/a	n/a	A1_05.jpg	500.0	0.0	110177.0	0.0	110177.0	0.0	TrialProc1	A1HighLargeEDBlockList	2500.0	0.0	107677.0	0.0	107677.0	0.0	107677.0	2500.0	d	1610.0	109287.0	16.0
19	2.5	000_R01_VA_allProc	116	1	"<?xml version=""1.0""?>\n<Clock xmlns:dt=""urn:schemas-microsoft-com:datatypes""><Description dt:dt=""string"">E-Prime Primary Realtime Clock</Description><StartTime><Timestamp dt:dt=""int"">0</Timestamp><DateUtc dt:dt=""string"">2021-08-10T17:13:23Z</DateUtc></StartTime><FrequencyChanges><FrequencyChange><Frequency dt:dt=""r8"">3020390</Frequency><Timestamp dt:dt=""r8"">4705180895101</Timestamp><Current dt:dt=""r8"">0</Current><DateUtc dt:dt=""string"">2021-08-10T17:13:23Z</DateUtc></FrequencyChange></FrequencyChanges></Clock>\n"	000_R01_VA_allProc-116-1	60.001	1.0.0.229	1	-2102657846	Professional	2.0.10.356	2.0.10.356	08-10-2021	8/10/2021 5:13:23 PM	13:13:23	2.0.10.252	1	0.0	0.0	91678.0	26.0	91678.0	3999.0	-999999.0	257213.0	0.0	251675.0	0.0	Run1Proc	1	1	1	RunList	1.0	HighLargeED	8000.0	0.0	113677.0	0.0	113677.0	0.0	113677.0	0.0	A1HighLargeEDBlockProc	1.0	1.0	1.0	n/a	n/a	n/a	Run1BlockList	6.0	6.0	1.0	6.0	n/a	n/a	n/a	n/a	n/a	n/a	n/a	n/a	n/a	n/a	n/a	n/a	n/a	n/a	n/a	n/a	n/a	n/a	n/a	n/a	n/a	n/a	n/a	n/a	n/a	n/a	n/a	n/a	n/a	n/a	n/a	n/a	n/a	A1_06.jpg	500.0	0.0	113177.0	0.0	113177.0	0.0	TrialProc1	A1HighLargeEDBlockList	2500.0	0.0	110677.0	0.0	110677.0	0.0	110677.0	2500.0	d	1202.0	111879.0	19.0
30	2.5	000_R01_VA_allProc	116	1	"<?xml version=""1.0""?>\n<Clock xmlns:dt=""urn:schemas-microsoft-com:datatypes""><Description dt:dt=""string"">E-Prime Primary Realtime Clock</Description><StartTime><Timestamp dt:dt=""int"">0</Timestamp><DateUtc dt:dt=""string"">2021-08-10T17:13:23Z</DateUtc></StartTime><FrequencyChanges><FrequencyChange><Frequency dt:dt=""r8"">3020390</Frequency><Timestamp dt:dt=""r8"">4705180895101</Timestamp><Current dt:dt=""r8"">0</Current><DateUtc dt:dt=""string"">2021-08-10T17:13:23Z</DateUtc></FrequencyChange></FrequencyChanges></Clock>\n"	000_R01_VA_allProc-116-1	60.001	1.0.0.229	1	-2102657846	Professional	2.0.10.356	2.0.10.356	08-10-2021	8/10/2021 5:13:23 PM	13:13:23	2.0.10.252	1	0.0	0.0	91678.0	26.0	91678.0	3999.0	-999999.0	257213.0	0.0	251675.0	0.0	Run1Proc	1	1	1	RunList	2.0	OfficeSmall	8000.0	0.0	139677.0	0.0	139677.0	0.0	139677.0	0.0	F1OfficeSmallBlockProc	2.0	1.0	2.0	n/a	n/a	n/a	Run1BlockList	1.0	n/a	n/a	n/a	n/a	n/a	n/a	n/a	n/a	n/a	n/a	n/a	n/a	n/a	n/a	n/a	n/a	n/a	n/a	n/a	n/a	n/a	n/a	n/a	n/a	n/a	n/a	n/a	n/a	n/a	n/a	1.0	1.0	1.0	n/a	n/a	n/a	F1_01.jpg	500.0	0.0	124177.0	0.0	124177.0	0.0	TrialProc1	F1OfficeSmallBlockList	2500.0	0.0	121677.0	0.0	121677.0	0.0	121677.0	2500.0	c	2418.0	124095.0	30.0
33	2.5	000_R01_VA_allProc	116	1	"<?xml version=""1.0""?>\n<Clock xmlns:dt=""urn:schemas-microsoft-com:datatypes""><Description dt:dt=""string"">E-Prime Primary Realtime Clock</Description><StartTime><Timestamp dt:dt=""int"">0</Timestamp><DateUtc dt:dt=""string"">2021-08-10T17:13:23Z</DateUtc></StartTime><FrequencyChanges><FrequencyChange><Frequency dt:dt=""r8"">3020390</Frequency><Timestamp dt:dt=""r8"">4705180895101</Timestamp><Current dt:dt=""r8"">0</Current><DateUtc dt:dt=""string"">2021-08-10T17:13:23Z</DateUtc></FrequencyChange></FrequencyChanges></Clock>\n"	000_R01_VA_allProc-116-1	60.001	1.0.0.229	1	-2102657846	Professional	2.0.10.356	2.0.10.356	08-10-2021	8/10/2021 5:13:23 PM	13:13:23	2.0.10.252	1	0.0	0.0	91678.0	26.0	91678.0	3999.0	-999999.0	257213.0	0.0	251675.0	0.0	Run1Proc	1	1	1	RunList	2.0	OfficeSmall	8000.0	0.0	139677.0	0.0	139677.0	0.0	139677.0	0.0	F1OfficeSmallBlockProc	2.0	1.0	2.0	n/a	n/a	n/a	Run1BlockList	2.0	n/a	n/a	n/a	n/a	n/a	n/a	n/a	n/a	n/a	n/a	n/a	n/a	n/a	n/a	n/a	n/a	n/a	n/a	n/a	n/a	n/a	n/a	n/a	n/a	n/a	n/a	n/a	n/a	n/a	n/a	2.0	1.0	2.0	n/a	n/a	n/a	F1_02.jpg	500.0	0.0	127177.0	0.0	127177.0	0.0	TrialProc1	F1OfficeSmallBlockList	2500.0	0.0	124677.0	0.0	124677.0	0.0	124677.0	2500.0	c	1578.0	126255.0	33.0
36	2.5	000_R01_VA_allProc	116	1	"<?xml version=""1.0""?>\n<Clock xmlns:dt=""urn:schemas-microsoft-com:datatypes""><Description dt:dt=""string"">E-Prime Primary Realtime Clock</Description><StartTime><Timestamp dt:dt=""int"">0</Timestamp><DateUtc dt:dt=""string"">2021-08-10T17:13:23Z</DateUtc></StartTime><FrequencyChanges><FrequencyChange><Frequency dt:dt=""r8"">3020390</Frequency><Timestamp dt:dt=""r8"">4705180895101</Timestamp><Current dt:dt=""r8"">0</Current><DateUtc dt:dt=""string"">2021-08-10T17:13:23Z</DateUtc></FrequencyChange></FrequencyChanges></Clock>\n"	000_R01_VA_allProc-116-1	60.001	1.0.0.229	1	-2102657846	Professional	2.0.10.356	2.0.10.356	08-10-2021	8/10/2021 5:13:23 PM	13:13:23	2.0.10.252	1	0.0	0.0	91678.0	26.0	91678.0	3999.0	-999999.0	257213.0	0.0	251675.0	0.0	Run1Proc	1	1	1	RunList	2.0	OfficeSmall	8000.0	0.0	139677.0	0.0	139677.0	0.0	139677.0	0.0	F1OfficeSmallBlockProc	2.0	1.0	2.0	n/a	n/a	n/a	Run1BlockList	3.0	n/a	n/a	n/a	n/a	n/a	n/a	n/a	n/a	n/a	n/a	n/a	n/a	n/a	n/a	n/a	n/a	n/a	n/a	n/a	n/a	n/a	n/a	n/a	n/a	n/a	n/a	n/a	n/a	n/a	n/a	3.0	1.0	3.0	n/a	n/a	n/a	F1_03.jpg	500.0	0.0	130177.0	0.0	130177.0	0.0	TrialProc1	F1OfficeSmallBlockList	2500.0	0.0	127677.0	0.0	127677.0	0.0	127677.0	2500.0	c	1154.0	128831.0	36.0
39	2.5	000_R01_VA_allProc	116	1	"<?xml version=""1.0""?>\n<Clock xmlns:dt=""urn:schemas-microsoft-com:datatypes""><Description dt:dt=""string"">E-Prime Primary Realtime Clock</Description><StartTime><Timestamp dt:dt=""int"">0</Timestamp><DateUtc dt:dt=""string"">2021-08-10T17:13:23Z</DateUtc></StartTime><FrequencyChanges><FrequencyChange><Frequency dt:dt=""r8"">3020390</Frequency><Timestamp dt:dt=""r8"">4705180895101</Timestamp><Current dt:dt=""r8"">0</Current><DateUtc dt:dt=""string"">2021-08-10T17:13:23Z</DateUtc></FrequencyChange></FrequencyChanges></Clock>\n"	000_R01_VA_allProc-116-1	60.001	1.0.0.229	1	-2102657846	Professional	2.0.10.356	2.0.10.356	08-10-2021	8/10/2021 5:13:23 PM	13:13:23	2.0.10.252	1	0.0	0.0	91678.0	26.0	91678.0	3999.0	-999999.0	257213.0	0.0	251675.0	0.0	Run1Proc	1	1	1	RunList	2.0	OfficeSmall	8000.0	0.0	139677.0	0.0	139677.0	0.0	139677.0	0.0	F1OfficeSmallBlockProc	2.0	1.0	2.0	n/a	n/a	n/a	Run1BlockList	4.0	n/a	n/a	n/a	n/a	n/a	n/a	n/a	n/a	n/a	n/a	n/a	n/a	n/a	n/a	n/a	n/a	n/a	n/a	n/a	n/a	n/a	n/a	n/a	n/a	n/a	n/a	n/a	n/a	n/a	n/a	4.0	1.0	4.0	n/a	n/a	n/a	F1_04.jpg	500.0	0.0	133177.0	0.0	133177.0	0.0	TrialProc1	F1OfficeSmallBlockList	2500.0	0.0	130677.0	0.0	130677.0	0.0	130677.0	2500.0	c	1114.0	131791.0	39.0
42	2.5	000_R01_VA_allProc	116	1	"<?xml version=""1.0""?>\n<Clock xmlns:dt=""urn:schemas-microsoft-com:datatypes""><Description dt:dt=""string"">E-Prime Primary Realtime Clock</Description><StartTime><Timestamp dt:dt=""int"">0</Timestamp><DateUtc dt:dt=""string"">2021-08-10T17:13:23Z</DateUtc></StartTime><FrequencyChanges><FrequencyChange><Frequency dt:dt=""r8"">3020390</Frequency><Timestamp dt:dt=""r8"">4705180895101</Timestamp><Current dt:dt=""r8"">0</Current><DateUtc dt:dt=""string"">2021-08-10T17:13:23Z</DateUtc></FrequencyChange></FrequencyChanges></Clock>\n"	000_R01_VA_allProc-116-1	60.001	1.0.0.229	1	-2102657846	Professional	2.0.10.356	2.0.10.356	08-10-2021	8/10/2021 5:13:23 PM	13:13:23	2.0.10.252	1	0.0	0.0	91678.0	26.0	91678.0	3999.0	-999999.0	257213.0	0.0	251675.0	0.0	Run1Proc	1	1	1	RunList	2.0	OfficeSmall	8000.0	0.0	139677.0	0.0	139677.0	0.0	139677.0	0.0	F1OfficeSmallBlockProc	2.0	1.0	2.0	n/a	n/a	n/a	Run1BlockList	5.0	n/a	n/a	n/a	n/a	n/a	n/a	n/a	n/a	n/a	n/a	n/a	n/a	n/a	n/a	n/a	n/a	n/a	n/a	n/a	n/a	n/a	n/a	n/a	n/a	n/a	n/a	n/a	n/a	n/a	n/a	5.0	1.0	5.0	n/a	n/a	n/a	F1_05.jpg	500.0	0.0	136177.0	0.0	136177.0	0.0	TrialProc1	F1OfficeSmallBlockList	2500.0	0.0	133677.0	0.0	133677.0	0.0	133677.0	2500.0	c	930.0	134607.0	42.0
45	2.5	000_R01_VA_allProc	116	1	"<?xml version=""1.0""?>\n<Clock xmlns:dt=""urn:schemas-microsoft-com:datatypes""><Description dt:dt=""string"">E-Prime Primary Realtime Clock</Description><StartTime><Timestamp dt:dt=""int"">0</Timestamp><DateUtc dt:dt=""string"">2021-08-10T17:13:23Z</DateUtc></StartTime><FrequencyChanges><FrequencyChange><Frequency dt:dt=""r8"">3020390</Frequency><Timestamp dt:dt=""r8"">4705180895101</Timestamp><Current dt:dt=""r8"">0</Current><DateUtc dt:dt=""string"">2021-08-10T17:13:23Z</DateUtc></FrequencyChange></FrequencyChanges></Clock>\n"	000_R01_VA_allProc-116-1	60.001	1.0.0.229	1	-2102657846	Professional	2.0.10.356	2.0.10.356	08-10-2021	8/10/2021 5:13:23 PM	13:13:23	2.0.10.252	1	0.0	0.0	91678.0	26.0	91678.0	3999.0	-999999.0	257213.0	0.0	251675.0	0.0	Run1Proc	1	1	1	RunList	2.0	OfficeSmall	8000.0	0.0	139677.0	0.0	139677.0	0.0	139677.0	0.0	F1OfficeSmallBlockProc	2.0	1.0	2.0	n/a	n/a	n/a	Run1BlockList	6.0	n/a	n/a	n/a	n/a	n/a	n/a	n/a	n/a	n/a	n/a	n/a	n/a	n/a	n/a	n/a	n/a	n/a	n/a	n/a	n/a	n/a	n/a	n/a	n/a	n/a	n/a	n/a	n/a	n/a	n/a	6.0	1.0	6.0	n/a	n/a	n/a	F1_06.jpg	500.0	0.0	139177.0	0.0	139177.0	0.0	TrialProc1	F1OfficeSmallBlockList	2500.0	0.0	136677.0	0.0	136677.0	0.0	136677.0	2500.0	c	1106.0	137783.0	45.0
56	2.5	000_R01_VA_allProc	116	1	"<?xml version=""1.0""?>\n<Clock xmlns:dt=""urn:schemas-microsoft-com:datatypes""><Description dt:dt=""string"">E-Prime Primary Realtime Clock</Description><StartTime><Timestamp dt:dt=""int"">0</Timestamp><DateUtc dt:dt=""string"">2021-08-10T17:13:23Z</DateUtc></StartTime><FrequencyChanges><FrequencyChange><Frequency dt:dt=""r8"">3020390</Frequency><Timestamp dt:dt=""r8"">4705180895101</Timestamp><Current dt:dt=""r8"">0</Current><DateUtc dt:dt=""string"">2021-08-10T17:13:23Z</DateUtc></FrequencyChange></FrequencyChanges></Clock>\n"	000_R01_VA_allProc-116-1	60.001	1.0.0.229	1	-2102657846	Professional	2.0.10.356	2.0.10.356	08-10-2021	8/10/2021 5:13:23 PM	13:13:23	2.0.10.252	1	0.0	0.0	91678.0	26.0	91678.0	3999.0	-999999.0	257213.0	0.0	251675.0	0.0	Run1Proc	1	1	1	RunList	3.0	LowLargeED	8000.0	0.0	165676.0	0.0	165676.0	0.0	165676.0	0.0	C1LowLargeEDBlockProc	3.0	1.0	3.0	n/a	n/a	n/a	Run1BlockList	1.0	n/a	n/a	n/a	n/a	n/a	n/a	n/a	n/a	n/a	n/a	n/a	n/a	1.0	1.0	1.0	n/a	n/a	n/a	n/a	n/a	n/a	n/a	n/a	n/a	n/a	n/a	n/a	n/a	n/a	n/a	n/a	n/a	n/a	n/a	n/a	n/a	C1_01.jpg	500.0	0.0	150177.0	0.0	150177.0	0.0	TrialProc1	C1LowLargeEDBlockList	2500.0	0.0	147677.0	0.0	147677.0	0.0	147677.0	2500.0	d	1138.0	148815.0	56.0
59	2.5	000_R01_VA_allProc	116	1	"<?xml version=""1.0""?>\n<Clock xmlns:dt=""urn:schemas-microsoft-com:datatypes""><Description dt:dt=""string"">E-Prime Primary Realtime Clock</Description><StartTime><Timestamp dt:dt=""int"">0</Timestamp><DateUtc dt:dt=""string"">2021-08-10T17:13:23Z</DateUtc></StartTime><FrequencyChanges><FrequencyChange><Frequency dt:dt=""r8"">3020390</Frequency><Timestamp dt:dt=""r8"">4705180895101</Timestamp><Current dt:dt=""r8"">0</Current><DateUtc dt:dt=""string"">2021-08-10T17:13:23Z</DateUtc></FrequencyChange></FrequencyChanges></Clock>\n"	000_R01_VA_allProc-116-1	60.001	1.0.0.229	1	-2102657846	Professional	2.0.10.356	2.0.10.356	08-10-2021	8/10/2021 5:13:23 PM	13:13:23	2.0.10.252	1	0.0	0.0	91678.0	26.0	91678.0	3999.0	-999999.0	257213.0	0.0	251675.0	0.0	Run1Proc	1	1	1	RunList	3.0	LowLargeED	8000.0	0.0	165676.0	0.0	165676.0	0.0	165676.0	0.0	C1LowLargeEDBlockProc	3.0	1.0	3.0	n/a	n/a	n/a	Run1BlockList	2.0	n/a	n/a	n/a	n/a	n/a	n/a	n/a	n/a	n/a	n/a	n/a	n/a	2.0	1.0	2.0	n/a	n/a	n/a	n/a	n/a	n/a	n/a	n/a	n/a	n/a	n/a	n/a	n/a	n/a	n/a	n/a	n/a	n/a	n/a	n/a	n/a	C1_02.jpg	500.0	0.0	153177.0	0.0	153177.0	0.0	TrialProc1	C1LowLargeEDBlockList	2500.0	0.0	150677.0	0.0	150677.0	0.0	150677.0	2500.0	d	1162.0	151839.0	59.0
62	2.5	000_R01_VA_allProc	116	1	"<?xml version=""1.0""?>\n<Clock xmlns:dt=""urn:schemas-microsoft-com:datatypes""><Description dt:dt=""string"">E-Prime Primary Realtime Clock</Description><StartTime><Timestamp dt:dt=""int"">0</Timestamp><DateUtc dt:dt=""string"">2021-08-10T17:13:23Z</DateUtc></StartTime><FrequencyChanges><FrequencyChange><Frequency dt:dt=""r8"">3020390</Frequency><Timestamp dt:dt=""r8"">4705180895101</Timestamp><Current dt:dt=""r8"">0</Current><DateUtc dt:dt=""string"">2021-08-10T17:13:23Z</DateUtc></FrequencyChange></FrequencyChanges></Clock>\n"	000_R01_VA_allProc-116-1	60.001	1.0.0.229	1	-2102657846	Professional	2.0.10.356	2.0.10.356	08-10-2021	8/10/2021 5:13:23 PM	13:13:23	2.0.10.252	1	0.0	0.0	91678.0	26.0	91678.0	3999.0	-999999.0	257213.0	0.0	251675.0	0.0	Run1Proc	1	1	1	RunList	3.0	LowLargeED	8000.0	0.0	165676.0	0.0	165676.0	0.0	165676.0	0.0	C1LowLargeEDBlockProc	3.0	1.0	3.0	n/a	n/a	n/a	Run1BlockList	3.0	n/a	n/a	n/a	n/a	n/a	n/a	n/a	n/a	n/a	n/a	n/a	n/a	3.0	1.0	3.0	n/a	n/a	n/a	n/a	n/a	n/a	n/a	n/a	n/a	n/a	n/a	n/a	n/a	n/a	n/a	n/a	n/a	n/a	n/a	n/a	n/a	C1_03.jpg	500.0	0.0	156177.0	0.0	156177.0	0.0	TrialProc1	C1LowLargeEDBlockList	2500.0	0.0	153677.0	0.0	153677.0	0.0	153677.0	2500.0	c	1530.0	155207.0	62.0
65	2.5	000_R01_VA_allProc	116	1	"<?xml version=""1.0""?>\n<Clock xmlns:dt=""urn:schemas-microsoft-com:datatypes""><Description dt:dt=""string"">E-Prime Primary Realtime Clock</Description><StartTime><Timestamp dt:dt=""int"">0</Timestamp><DateUtc dt:dt=""string"">2021-08-10T17:13:23Z</DateUtc></StartTime><FrequencyChanges><FrequencyChange><Frequency dt:dt=""r8"">3020390</Frequency><Timestamp dt:dt=""r8"">4705180895101</Timestamp><Current dt:dt=""r8"">0</Current><DateUtc dt:dt=""string"">2021-08-10T17:13:23Z</DateUtc></FrequencyChange></FrequencyChanges></Clock>\n"	000_R01_VA_allProc-116-1	60.001	1.0.0.229	1	-2102657846	Professional	2.0.10.356	2.0.10.356	08-10-2021	8/10/2021 5:13:23 PM	13:13:23	2.0.10.252	1	0.0	0.0	91678.0	26.0	91678.0	3999.0	-999999.0	257213.0	0.0	251675.0	0.0	Run1Proc	1	1	1	RunList	3.0	LowLargeED	8000.0	0.0	165676.0	0.0	165676.0	0.0	165676.0	0.0	C1LowLargeEDBlockProc	3.0	1.0	3.0	n/a	n/a	n/a	Run1BlockList	4.0	n/a	n/a	n/a	n/a	n/a	n/a	n/a	n/a	n/a	n/a	n/a	n/a	4.0	1.0	4.0	n/a	n/a	n/a	n/a	n/a	n/a	n/a	n/a	n/a	n/a	n/a	n/a	n/a	n/a	n/a	n/a	n/a	n/a	n/a	n/a	n/a	C1_04.jpg	500.0	1.0	159177.0	0.0	159176.0	0.0	TrialProc1	C1LowLargeEDBlockList	2500.0	1.0	156677.0	1.0	156677.0	-1.0	156676.0	2500.0	d	1299.0	157975.0	64.999
68	2.5	000_R01_VA_allProc	116	1	"<?xml version=""1.0""?>\n<Clock xmlns:dt=""urn:schemas-microsoft-com:datatypes""><Description dt:dt=""string"">E-Prime Primary Realtime Clock</Description><StartTime><Timestamp dt:dt=""int"">0</Timestamp><DateUtc dt:dt=""string"">2021-08-10T17:13:23Z</DateUtc></StartTime><FrequencyChanges><FrequencyChange><Frequency dt:dt=""r8"">3020390</Frequency><Timestamp dt:dt=""r8"">4705180895101</Timestamp><Current dt:dt=""r8"">0</Current><DateUtc dt:dt=""string"">2021-08-10T17:13:23Z</DateUtc></FrequencyChange></FrequencyChanges></Clock>\n"	000_R01_VA_allProc-116-1	60.001	1.0.0.229	1	-2102657846	Professional	2.0.10.356	2.0.10.356	08-10-2021	8/10/2021 5:13:23 PM	13:13:23	2.0.10.252	1	0.0	0.0	91678.0	26.0	91678.0	3999.0	-999999.0	257213.0	0.0	251675.0	0.0	Run1Proc	1	1	1	RunList	3.0	LowLargeED	8000.0	0.0	165676.0	0.0	165676.0	0.0	165676.0	0.0	C1LowLargeEDBlockProc	3.0	1.0	3.0	n/a	n/a	n/a	Run1BlockList	5.0	n/a	n/a	n/a	n/a	n/a	n/a	n/a	n/a	n/a	n/a	n/a	n/a	5.0	1.0	5.0	n/a	n/a	n/a	n/a	n/a	n/a	n/a	n/a	n/a	n/a	n/a	n/a	n/a	n/a	n/a	n/a	n/a	n/a	n/a	n/a	n/a	C1_05.jpg	500.0	0.0	162177.0	0.0	162176.0	0.0	TrialProc1	C1LowLargeEDBlockList	2500.0	1.0	159677.0	1.0	159677.0	0.0	159676.0	2500.0	c	1667.0	161343.0	67.999
71	2.5	000_R01_VA_allProc	116	1	"<?xml version=""1.0""?>\n<Clock xmlns:dt=""urn:schemas-microsoft-com:datatypes""><Description dt:dt=""string"">E-Prime Primary Realtime Clock</Description><StartTime><Timestamp dt:dt=""int"">0</Timestamp><DateUtc dt:dt=""string"">2021-08-10T17:13:23Z</DateUtc></StartTime><FrequencyChanges><FrequencyChange><Frequency dt:dt=""r8"">3020390</Frequency><Timestamp dt:dt=""r8"">4705180895101</Timestamp><Current dt:dt=""r8"">0</Current><DateUtc dt:dt=""string"">2021-08-10T17:13:23Z</DateUtc></FrequencyChange></FrequencyChanges></Clock>\n"	000_R01_VA_allProc-116-1	60.001	1.0.0.229	1	-2102657846	Professional	2.0.10.356	2.0.10.356	08-10-2021	8/10/2021 5:13:23 PM	13:13:23	2.0.10.252	1	0.0	0.0	91678.0	26.0	91678.0	3999.0	-999999.0	257213.0	0.0	251675.0	0.0	Run1Proc	1	1	1	RunList	3.0	LowLargeED	8000.0	0.0	165676.0	0.0	165676.0	0.0	165676.0	0.0	C1LowLargeEDBlockProc	3.0	1.0	3.0	n/a	n/a	n/a	Run1BlockList	6.0	n/a	n/a	n/a	n/a	n/a	n/a	n/a	n/a	n/a	n/a	n/a	n/a	6.0	1.0	6.0	n/a	n/a	n/a	n/a	n/a	n/a	n/a	n/a	n/a	n/a	n/a	n/a	n/a	n/a	n/a	n/a	n/a	n/a	n/a	n/a	n/a	C1_06.jpg	500.0	0.0	165176.0	0.0	165176.0	0.0	TrialProc1	C1LowLargeEDBlockList	2500.0	0.0	162676.0	0.0	162676.0	0.0	162676.0	2500.0	d	1914.0	164590.0	70.999
82	2.5	000_R01_VA_allProc	116	1	"<?xml version=""1.0""?>\n<Clock xmlns:dt=""urn:schemas-microsoft-com:datatypes""><Description dt:dt=""string"">E-Prime Primary Realtime Clock</Description><StartTime><Timestamp dt:dt=""int"">0</Timestamp><DateUtc dt:dt=""string"">2021-08-10T17:13:23Z</DateUtc></StartTime><FrequencyChanges><FrequencyChange><Frequency dt:dt=""r8"">3020390</Frequency><Timestamp dt:dt=""r8"">4705180895101</Timestamp><Current dt:dt=""r8"">0</Current><DateUtc dt:dt=""string"">2021-08-10T17:13:23Z</DateUtc></FrequencyChange></FrequencyChanges></Clock>\n"	000_R01_VA_allProc-116-1	60.001	1.0.0.229	1	-2102657846	Professional	2.0.10.356	2.0.10.356	08-10-2021	8/10/2021 5:13:23 PM	13:13:23	2.0.10.252	1	0.0	0.0	91678.0	26.0	91678.0	3999.0	-999999.0	257213.0	0.0	251675.0	0.0	Run1Proc	1	1	1	RunList	4.0	LowSmallED	8000.0	0.0	191676.0	0.0	191676.0	0.0	191676.0	0.0	D1LowSmallEDBlockProc	4.0	1.0	4.0	n/a	n/a	n/a	Run1BlockList	1.0	n/a	n/a	n/a	n/a	n/a	n/a	n/a	n/a	n/a	n/a	n/a	n/a	n/a	n/a	n/a	n/a	n/a	n/a	1.0	1.0	1.0	n/a	n/a	n/a	n/a	n/a	n/a	n/a	n/a	n/a	n/a	n/a	n/a	n/a	n/a	n/a	D1_01.jpg	500.0	0.0	176176.0	0.0	176176.0	0.0	TrialProc1	D1LowSmallEDBlockList	2500.0	0.0	173676.0	0.0	173676.0	0.0	173676.0	2500.0	d	1882.0	175558.0	81.999
85	2.5	000_R01_VA_allProc	116	1	"<?xml version=""1.0""?>\n<Clock xmlns:dt=""urn:schemas-microsoft-com:datatypes""><Description dt:dt=""string"">E-Prime Primary Realtime Clock</Description><StartTime><Timestamp dt:dt=""int"">0</Timestamp><DateUtc dt:dt=""string"">2021-08-10T17:13:23Z</DateUtc></StartTime><FrequencyChanges><FrequencyChange><Frequency dt:dt=""r8"">3020390</Frequency><Timestamp dt:dt=""r8"">4705180895101</Timestamp><Current dt:dt=""r8"">0</Current><DateUtc dt:dt=""string"">2021-08-10T17:13:23Z</DateUtc></FrequencyChange></FrequencyChanges></Clock>\n"	000_R01_VA_allProc-116-1	60.001	1.0.0.229	1	-2102657846	Professional	2.0.10.356	2.0.10.356	08-10-2021	8/10/2021 5:13:23 PM	13:13:23	2.0.10.252	1	0.0	0.0	91678.0	26.0	91678.0	3999.0	-999999.0	257213.0	0.0	251675.0	0.0	Run1Proc	1	1	1	RunList	4.0	LowSmallED	8000.0	0.0	191676.0	0.0	191676.0	0.0	191676.0	0.0	D1LowSmallEDBlockProc	4.0	1.0	4.0	n/a	n/a	n/a	Run1BlockList	2.0	n/a	n/a	n/a	n/a	n/a	n/a	n/a	n/a	n/a	n/a	n/a	n/a	n/a	n/a	n/a	n/a	n/a	n/a	2.0	1.0	2.0	n/a	n/a	n/a	n/a	n/a	n/a	n/a	n/a	n/a	n/a	n/a	n/a	n/a	n/a	n/a	D1_02.jpg	500.0	0.0	179176.0	0.0	179176.0	0.0	TrialProc1	D1LowSmallEDBlockList	2500.0	0.0	176676.0	0.0	176676.0	0.0	176676.0	2500.0	d	1426.0	178102.0	84.999
88	2.5	000_R01_VA_allProc	116	1	"<?xml version=""1.0""?>\n<Clock xmlns:dt=""urn:schemas-microsoft-com:datatypes""><Description dt:dt=""string"">E-Prime Primary Realtime Clock</Description><StartTime><Timestamp dt:dt=""int"">0</Timestamp><DateUtc dt:dt=""string"">2021-08-10T17:13:23Z</DateUtc></StartTime><FrequencyChanges><FrequencyChange><Frequency dt:dt=""r8"">3020390</Frequency><Timestamp dt:dt=""r8"">4705180895101</Timestamp><Current dt:dt=""r8"">0</Current><DateUtc dt:dt=""string"">2021-08-10T17:13:23Z</DateUtc></FrequencyChange></FrequencyChanges></Clock>\n"	000_R01_VA_allProc-116-1	60.001	1.0.0.229	1	-2102657846	Professional	2.0.10.356	2.0.10.356	08-10-2021	8/10/2021 5:13:23 PM	13:13:23	2.0.10.252	1	0.0	0.0	91678.0	26.0	91678.0	3999.0	-999999.0	257213.0	0.0	251675.0	0.0	Run1Proc	1	1	1	RunList	4.0	LowSmallED	8000.0	0.0	191676.0	0.0	191676.0	0.0	191676.0	0.0	D1LowSmallEDBlockProc	4.0	1.0	4.0	n/a	n/a	n/a	Run1BlockList	3.0	n/a	n/a	n/a	n/a	n/a	n/a	n/a	n/a	n/a	n/a	n/a	n/a	n/a	n/a	n/a	n/a	n/a	n/a	3.0	1.0	3.0	n/a	n/a	n/a	n/a	n/a	n/a	n/a	n/a	n/a	n/a	n/a	n/a	n/a	n/a	n/a	D1_03.jpg	500.0	0.0	182176.0	0.0	182176.0	0.0	TrialProc1	D1LowSmallEDBlockList	2500.0	0.0	179676.0	0.0	179676.0	0.0	179676.0	2500.0	c	1586.0	181262.0	87.999
91	2.5	000_R01_VA_allProc	116	1	"<?xml version=""1.0""?>\n<Clock xmlns:dt=""urn:schemas-microsoft-com:datatypes""><Description dt:dt=""string"">E-Prime Primary Realtime Clock</Description><StartTime><Timestamp dt:dt=""int"">0</Timestamp><DateUtc dt:dt=""string"">2021-08-10T17:13:23Z</DateUtc></StartTime><FrequencyChanges><FrequencyChange><Frequency dt:dt=""r8"">3020390</Frequency><Timestamp dt:dt=""r8"">4705180895101</Timestamp><Current dt:dt=""r8"">0</Current><DateUtc dt:dt=""string"">2021-08-10T17:13:23Z</DateUtc></FrequencyChange></FrequencyChanges></Clock>\n"	000_R01_VA_allProc-116-1	60.001	1.0.0.229	1	-2102657846	Professional	2.0.10.356	2.0.10.356	08-10-2021	8/10/2021 5:13:23 PM	13:13:23	2.0.10.252	1	0.0	0.0	91678.0	26.0	91678.0	3999.0	-999999.0	257213.0	0.0	251675.0	0.0	Run1Proc	1	1	1	RunList	4.0	LowSmallED	8000.0	0.0	191676.0	0.0	191676.0	0.0	191676.0	0.0	D1LowSmallEDBlockProc	4.0	1.0	4.0	n/a	n/a	n/a	Run1BlockList	4.0	n/a	n/a	n/a	n/a	n/a	n/a	n/a	n/a	n/a	n/a	n/a	n/a	n/a	n/a	n/a	n/a	n/a	n/a	4.0	1.0	4.0	n/a	n/a	n/a	n/a	n/a	n/a	n/a	n/a	n/a	n/a	n/a	n/a	n/a	n/a	n/a	D1_04.jpg	500.0	0.0	185176.0	0.0	185176.0	0.0	TrialProc1	D1LowSmallEDBlockList	2500.0	0.0	182676.0	0.0	182676.0	0.0	182676.0	2500.0	d	1066.0	183742.0	90.999
94	2.5	000_R01_VA_allProc	116	1	"<?xml version=""1.0""?>\n<Clock xmlns:dt=""urn:schemas-microsoft-com:datatypes""><Description dt:dt=""string"">E-Prime Primary Realtime Clock</Description><StartTime><Timestamp dt:dt=""int"">0</Timestamp><DateUtc dt:dt=""string"">2021-08-10T17:13:23Z</DateUtc></StartTime><FrequencyChanges><FrequencyChange><Frequency dt:dt=""r8"">3020390</Frequency><Timestamp dt:dt=""r8"">4705180895101</Timestamp><Current dt:dt=""r8"">0</Current><DateUtc dt:dt=""string"">2021-08-10T17:13:23Z</DateUtc></FrequencyChange></FrequencyChanges></Clock>\n"	000_R01_VA_allProc-116-1	60.001	1.0.0.229	1	-2102657846	Professional	2.0.10.356	2.0.10.356	08-10-2021	8/10/2021 5:13:23 PM	13:13:23	2.0.10.252	1	0.0	0.0	91678.0	26.0	91678.0	3999.0	-999999.0	257213.0	0.0	251675.0	0.0	Run1Proc	1	1	1	RunList	4.0	LowSmallED	8000.0	0.0	191676.0	0.0	191676.0	0.0	191676.0	0.0	D1LowSmallEDBlockProc	4.0	1.0	4.0	n/a	n/a	n/a	Run1BlockList	5.0	n/a	n/a	n/a	n/a	n/a	n/a	n/a	n/a	n/a	n/a	n/a	n/a	n/a	n/a	n/a	n/a	n/a	n/a	5.0	1.0	5.0	n/a	n/a	n/a	n/a	n/a	n/a	n/a	n/a	n/a	n/a	n/a	n/a	n/a	n/a	n/a	D1_05.jpg	500.0	0.0	188176.0	0.0	188176.0	0.0	TrialProc1	D1LowSmallEDBlockList	2500.0	0.0	185676.0	0.0	185676.0	0.0	185676.0	2500.0	c	1498.0	187174.0	93.999
97	2.5	000_R01_VA_allProc	116	1	"<?xml version=""1.0""?>\n<Clock xmlns:dt=""urn:schemas-microsoft-com:datatypes""><Description dt:dt=""string"">E-Prime Primary Realtime Clock</Description><StartTime><Timestamp dt:dt=""int"">0</Timestamp><DateUtc dt:dt=""string"">2021-08-10T17:13:23Z</DateUtc></StartTime><FrequencyChanges><FrequencyChange><Frequency dt:dt=""r8"">3020390</Frequency><Timestamp dt:dt=""r8"">4705180895101</Timestamp><Current dt:dt=""r8"">0</Current><DateUtc dt:dt=""string"">2021-08-10T17:13:23Z</DateUtc></FrequencyChange></FrequencyChanges></Clock>\n"	000_R01_VA_allProc-116-1	60.001	1.0.0.229	1	-2102657846	Professional	2.0.10.356	2.0.10.356	08-10-2021	8/10/2021 5:13:23 PM	13:13:23	2.0.10.252	1	0.0	0.0	91678.0	26.0	91678.0	3999.0	-999999.0	257213.0	0.0	251675.0	0.0	Run1Proc	1	1	1	RunList	4.0	LowSmallED	8000.0	0.0	191676.0	0.0	191676.0	0.0	191676.0	0.0	D1LowSmallEDBlockProc	4.0	1.0	4.0	n/a	n/a	n/a	Run1BlockList	6.0	n/a	n/a	n/a	n/a	n/a	n/a	n/a	n/a	n/a	n/a	n/a	n/a	n/a	n/a	n/a	n/a	n/a	n/a	6.0	1.0	6.0	n/a	n/a	n/a	n/a	n/a	n/a	n/a	n/a	n/a	n/a	n/a	n/a	n/a	n/a	n/a	D1_06.jpg	500.0	0.0	191176.0	0.0	191176.0	0.0	TrialProc1	D1LowSmallEDBlockList	2500.0	0.0	188676.0	0.0	188676.0	0.0	188676.0	2500.0	d	1362.0	190038.0	96.999
108	2.5	000_R01_VA_allProc	116	1	"<?xml version=""1.0""?>\n<Clock xmlns:dt=""urn:schemas-microsoft-com:datatypes""><Description dt:dt=""string"">E-Prime Primary Realtime Clock</Description><StartTime><Timestamp dt:dt=""int"">0</Timestamp><DateUtc dt:dt=""string"">2021-08-10T17:13:23Z</DateUtc></StartTime><FrequencyChanges><FrequencyChange><Frequency dt:dt=""r8"">3020390</Frequency><Timestamp dt:dt=""r8"">4705180895101</Timestamp><Current dt:dt=""r8"">0</Current><DateUtc dt:dt=""string"">2021-08-10T17:13:23Z</DateUtc></FrequencyChange></FrequencyChanges></Clock>\n"	000_R01_VA_allProc-116-1	60.001	1.0.0.229	1	-2102657846	Professional	2.0.10.356	2.0.10.356	08-10-2021	8/10/2021 5:13:23 PM	13:13:23	2.0.10.252	1	0.0	0.0	91678.0	26.0	91678.0	3999.0	-999999.0	257213.0	0.0	251675.0	0.0	Run1Proc	1	1	1	RunList	5.0	OfficeLarge	8000.0	0.0	217676.0	0.0	217676.0	0.0	217676.0	0.0	E1OfficeLargeBlockProc	5.0	1.0	5.0	n/a	n/a	n/a	Run1BlockList	1.0	n/a	n/a	n/a	n/a	n/a	n/a	n/a	n/a	n/a	n/a	n/a	n/a	n/a	n/a	n/a	n/a	n/a	n/a	n/a	n/a	n/a	n/a	n/a	n/a	1.0	1.0	1.0	n/a	n/a	n/a	n/a	n/a	n/a	n/a	n/a	n/a	E1_01.jpg	500.0	0.0	202176.0	0.0	202176.0	0.0	TrialProc1	E1OfficeLargeBlockList	2500.0	0.0	199676.0	0.0	199676.0	0.0	199676.0	2500.0	c	1442.0	201118.0	107.999
111	2.5	000_R01_VA_allProc	116	1	"<?xml version=""1.0""?>\n<Clock xmlns:dt=""urn:schemas-microsoft-com:datatypes""><Description dt:dt=""string"">E-Prime Primary Realtime Clock</Description><StartTime><Timestamp dt:dt=""int"">0</Timestamp><DateUtc dt:dt=""string"">2021-08-10T17:13:23Z</DateUtc></StartTime><FrequencyChanges><FrequencyChange><Frequency dt:dt=""r8"">3020390</Frequency><Timestamp dt:dt=""r8"">4705180895101</Timestamp><Current dt:dt=""r8"">0</Current><DateUtc dt:dt=""string"">2021-08-10T17:13:23Z</DateUtc></FrequencyChange></FrequencyChanges></Clock>\n"	000_R01_VA_allProc-116-1	60.001	1.0.0.229	1	-2102657846	Professional	2.0.10.356	2.0.10.356	08-10-2021	8/10/2021 5:13:23 PM	13:13:23	2.0.10.252	1	0.0	0.0	91678.0	26.0	91678.0	3999.0	-999999.0	257213.0	0.0	251675.0	0.0	Run1Proc	1	1	1	RunList	5.0	OfficeLarge	8000.0	0.0	217676.0	0.0	217676.0	0.0	217676.0	0.0	E1OfficeLargeBlockProc	5.0	1.0	5.0	n/a	n/a	n/a	Run1BlockList	2.0	n/a	n/a	n/a	n/a	n/a	n/a	n/a	n/a	n/a	n/a	n/a	n/a	n/a	n/a	n/a	n/a	n/a	n/a	n/a	n/a	n/a	n/a	n/a	n/a	2.0	1.0	2.0	n/a	n/a	n/a	n/a	n/a	n/a	n/a	n/a	n/a	E1_02.jpg	500.0	0.0	205176.0	0.0	205176.0	0.0	TrialProc1	E1OfficeLargeBlockList	2500.0	0.0	202676.0	0.0	202676.0	0.0	202676.0	2500.0	c	1234.0	203910.0	110.999
114	2.5	000_R01_VA_allProc	116	1	"<?xml version=""1.0""?>\n<Clock xmlns:dt=""urn:schemas-microsoft-com:datatypes""><Description dt:dt=""string"">E-Prime Primary Realtime Clock</Description><StartTime><Timestamp dt:dt=""int"">0</Timestamp><DateUtc dt:dt=""string"">2021-08-10T17:13:23Z</DateUtc></StartTime><FrequencyChanges><FrequencyChange><Frequency dt:dt=""r8"">3020390</Frequency><Timestamp dt:dt=""r8"">4705180895101</Timestamp><Current dt:dt=""r8"">0</Current><DateUtc dt:dt=""string"">2021-08-10T17:13:23Z</DateUtc></FrequencyChange></FrequencyChanges></Clock>\n"	000_R01_VA_allProc-116-1	60.001	1.0.0.229	1	-2102657846	Professional	2.0.10.356	2.0.10.356	08-10-2021	8/10/2021 5:13:23 PM	13:13:23	2.0.10.252	1	0.0	0.0	91678.0	26.0	91678.0	3999.0	-999999.0	257213.0	0.0	251675.0	0.0	Run1Proc	1	1	1	RunList	5.0	OfficeLarge	8000.0	0.0	217676.0	0.0	217676.0	0.0	217676.0	0.0	E1OfficeLargeBlockProc	5.0	1.0	5.0	n/a	n/a	n/a	Run1BlockList	3.0	n/a	n/a	n/a	n/a	n/a	n/a	n/a	n/a	n/a	n/a	n/a	n/a	n/a	n/a	n/a	n/a	n/a	n/a	n/a	n/a	n/a	n/a	n/a	n/a	3.0	1.0	3.0	n/a	n/a	n/a	n/a	n/a	n/a	n/a	n/a	n/a	E1_03.jpg	500.0	0.0	208176.0	0.0	208176.0	0.0	TrialProc1	E1OfficeLargeBlockList	2500.0	0.0	205676.0	0.0	205676.0	0.0	205676.0	2500.0	c	1354.0	207030.0	113.999
117	2.5	000_R01_VA_allProc	116	1	"<?xml version=""1.0""?>\n<Clock xmlns:dt=""urn:schemas-microsoft-com:datatypes""><Description dt:dt=""string"">E-Prime Primary Realtime Clock</Description><StartTime><Timestamp dt:dt=""int"">0</Timestamp><DateUtc dt:dt=""string"">2021-08-10T17:13:23Z</DateUtc></StartTime><FrequencyChanges><FrequencyChange><Frequency dt:dt=""r8"">3020390</Frequency><Timestamp dt:dt=""r8"">4705180895101</Timestamp><Current dt:dt=""r8"">0</Current><DateUtc dt:dt=""string"">2021-08-10T17:13:23Z</DateUtc></FrequencyChange></FrequencyChanges></Clock>\n"	000_R01_VA_allProc-116-1	60.001	1.0.0.229	1	-2102657846	Professional	2.0.10.356	2.0.10.356	08-10-2021	8/10/2021 5:13:23 PM	13:13:23	2.0.10.252	1	0.0	0.0	91678.0	26.0	91678.0	3999.0	-999999.0	257213.0	0.0	251675.0	0.0	Run1Proc	1	1	1	RunList	5.0	OfficeLarge	8000.0	0.0	217676.0	0.0	217676.0	0.0	217676.0	0.0	E1OfficeLargeBlockProc	5.0	1.0	5.0	n/a	n/a	n/a	Run1BlockList	4.0	n/a	n/a	n/a	n/a	n/a	n/a	n/a	n/a	n/a	n/a	n/a	n/a	n/a	n/a	n/a	n/a	n/a	n/a	n/a	n/a	n/a	n/a	n/a	n/a	4.0	1.0	4.0	n/a	n/a	n/a	n/a	n/a	n/a	n/a	n/a	n/a	E1_04.jpg	500.0	0.0	211176.0	0.0	211176.0	0.0	TrialProc1	E1OfficeLargeBlockList	2500.0	0.0	208676.0	0.0	208676.0	0.0	208676.0	2500.0	c	1066.0	209742.0	116.999
120	2.5	000_R01_VA_allProc	116	1	"<?xml version=""1.0""?>\n<Clock xmlns:dt=""urn:schemas-microsoft-com:datatypes""><Description dt:dt=""string"">E-Prime Primary Realtime Clock</Description><StartTime><Timestamp dt:dt=""int"">0</Timestamp><DateUtc dt:dt=""string"">2021-08-10T17:13:23Z</DateUtc></StartTime><FrequencyChanges><FrequencyChange><Frequency dt:dt=""r8"">3020390</Frequency><Timestamp dt:dt=""r8"">4705180895101</Timestamp><Current dt:dt=""r8"">0</Current><DateUtc dt:dt=""string"">2021-08-10T17:13:23Z</DateUtc></FrequencyChange></FrequencyChanges></Clock>\n"	000_R01_VA_allProc-116-1	60.001	1.0.0.229	1	-2102657846	Professional	2.0.10.356	2.0.10.356	08-10-2021	8/10/2021 5:13:23 PM	13:13:23	2.0.10.252	1	0.0	0.0	91678.0	26.0	91678.0	3999.0	-999999.0	257213.0	0.0	251675.0	0.0	Run1Proc	1	1	1	RunList	5.0	OfficeLarge	8000.0	0.0	217676.0	0.0	217676.0	0.0	217676.0	0.0	E1OfficeLargeBlockProc	5.0	1.0	5.0	n/a	n/a	n/a	Run1BlockList	5.0	n/a	n/a	n/a	n/a	n/a	n/a	n/a	n/a	n/a	n/a	n/a	n/a	n/a	n/a	n/a	n/a	n/a	n/a	n/a	n/a	n/a	n/a	n/a	n/a	5.0	1.0	5.0	n/a	n/a	n/a	n/a	n/a	n/a	n/a	n/a	n/a	E1_05.jpg	500.0	0.0	214176.0	0.0	214176.0	0.0	TrialProc1	E1OfficeLargeBlockList	2500.0	0.0	211676.0	0.0	211676.0	0.0	211676.0	2500.0	c	1162.0	212838.0	119.999
123	2.5	000_R01_VA_allProc	116	1	"<?xml version=""1.0""?>\n<Clock xmlns:dt=""urn:schemas-microsoft-com:datatypes""><Description dt:dt=""string"">E-Prime Primary Realtime Clock</Description><StartTime><Timestamp dt:dt=""int"">0</Timestamp><DateUtc dt:dt=""string"">2021-08-10T17:13:23Z</DateUtc></StartTime><FrequencyChanges><FrequencyChange><Frequency dt:dt=""r8"">3020390</Frequency><Timestamp dt:dt=""r8"">4705180895101</Timestamp><Current dt:dt=""r8"">0</Current><DateUtc dt:dt=""string"">2021-08-10T17:13:23Z</DateUtc></FrequencyChange></FrequencyChanges></Clock>\n"	000_R01_VA_allProc-116-1	60.001	1.0.0.229	1	-2102657846	Professional	2.0.10.356	2.0.10.356	08-10-2021	8/10/2021 5:13:23 PM	13:13:23	2.0.10.252	1	0.0	0.0	91678.0	26.0	91678.0	3999.0	-999999.0	257213.0	0.0	251675.0	0.0	Run1Proc	1	1	1	RunList	5.0	OfficeLarge	8000.0	0.0	217676.0	0.0	217676.0	0.0	217676.0	0.0	E1OfficeLargeBlockProc	5.0	1.0	5.0	n/a	n/a	n/a	Run1BlockList	6.0	n/a	n/a	n/a	n/a	n/a	n/a	n/a	n/a	n/a	n/a	n/a	n/a	n/a	n/a	n/a	n/a	n/a	n/a	n/a	n/a	n/a	n/a	n/a	n/a	6.0	1.0	6.0	n/a	n/a	n/a	n/a	n/a	n/a	n/a	n/a	n/a	E1_06.jpg	500.0	0.0	217176.0	0.0	217176.0	0.0	TrialProc1	E1OfficeLargeBlockList	2500.0	0.0	214676.0	0.0	214676.0	0.0	214676.0	2500.0	c	1418.0	216094.0	122.999
134	2.5	000_R01_VA_allProc	116	1	"<?xml version=""1.0""?>\n<Clock xmlns:dt=""urn:schemas-microsoft-com:datatypes""><Description dt:dt=""string"">E-Prime Primary Realtime Clock</Description><StartTime><Timestamp dt:dt=""int"">0</Timestamp><DateUtc dt:dt=""string"">2021-08-10T17:13:23Z</DateUtc></StartTime><FrequencyChanges><FrequencyChange><Frequency dt:dt=""r8"">3020390</Frequency><Timestamp dt:dt=""r8"">4705180895101</Timestamp><Current dt:dt=""r8"">0</Current><DateUtc dt:dt=""string"">2021-08-10T17:13:23Z</DateUtc></FrequencyChange></FrequencyChanges></Clock>\n"	000_R01_VA_allProc-116-1	60.001	1.0.0.229	1	-2102657846	Professional	2.0.10.356	2.0.10.356	08-10-2021	8/10/2021 5:13:23 PM	13:13:23	2.0.10.252	1	0.0	0.0	91678.0	26.0	91678.0	3999.0	-999999.0	257213.0	0.0	251675.0	0.0	Run1Proc	1	1	1	RunList	6.0	HighSmallED	8000.0	0.0	243675.0	0.0	243675.0	0.0	243675.0	0.0	B1HighSmallEDBlockProc	6.0	1.0	6.0	n/a	n/a	n/a	Run1BlockList	1.0	n/a	n/a	n/a	n/a	n/a	n/a	1.0	1.0	1.0	n/a	n/a	n/a	n/a	n/a	n/a	n/a	n/a	n/a	n/a	n/a	n/a	n/a	n/a	n/a	n/a	n/a	n/a	n/a	n/a	n/a	n/a	n/a	n/a	n/a	n/a	n/a	B1_01.jpg	500.0	0.0	228175.0	0.0	228175.0	0.0	TrialProc1	B1HighSmallEDBlockList	2500.0	1.0	225676.0	1.0	225676.0	-1.0	225675.0	2500.0	n/a	0.0	0.0	133.998
137	2.5	000_R01_VA_allProc	116	1	"<?xml version=""1.0""?>\n<Clock xmlns:dt=""urn:schemas-microsoft-com:datatypes""><Description dt:dt=""string"">E-Prime Primary Realtime Clock</Description><StartTime><Timestamp dt:dt=""int"">0</Timestamp><DateUtc dt:dt=""string"">2021-08-10T17:13:23Z</DateUtc></StartTime><FrequencyChanges><FrequencyChange><Frequency dt:dt=""r8"">3020390</Frequency><Timestamp dt:dt=""r8"">4705180895101</Timestamp><Current dt:dt=""r8"">0</Current><DateUtc dt:dt=""string"">2021-08-10T17:13:23Z</DateUtc></FrequencyChange></FrequencyChanges></Clock>\n"	000_R01_VA_allProc-116-1	60.001	1.0.0.229	1	-2102657846	Professional	2.0.10.356	2.0.10.356	08-10-2021	8/10/2021 5:13:23 PM	13:13:23	2.0.10.252	1	0.0	0.0	91678.0	26.0	91678.0	3999.0	-999999.0	257213.0	0.0	251675.0	0.0	Run1Proc	1	1	1	RunList	6.0	HighSmallED	8000.0	0.0	243675.0	0.0	243675.0	0.0	243675.0	0.0	B1HighSmallEDBlockProc	6.0	1.0	6.0	n/a	n/a	n/a	Run1BlockList	2.0	n/a	n/a	n/a	n/a	n/a	n/a	2.0	1.0	2.0	n/a	n/a	n/a	n/a	n/a	n/a	n/a	n/a	n/a	n/a	n/a	n/a	n/a	n/a	n/a	n/a	n/a	n/a	n/a	n/a	n/a	n/a	n/a	n/a	n/a	n/a	n/a	B1_02.jpg	500.0	0.0	231175.0	0.0	231175.0	0.0	TrialProc1	B1HighSmallEDBlockList	2500.0	0.0	228675.0	0.0	228675.0	0.0	228675.0	2500.0	d	1123.0	229798.0	136.998
140	2.5	000_R01_VA_allProc	116	1	"<?xml version=""1.0""?>\n<Clock xmlns:dt=""urn:schemas-microsoft-com:datatypes""><Description dt:dt=""string"">E-Prime Primary Realtime Clock</Description><StartTime><Timestamp dt:dt=""int"">0</Timestamp><DateUtc dt:dt=""string"">2021-08-10T17:13:23Z</DateUtc></StartTime><FrequencyChanges><FrequencyChange><Frequency dt:dt=""r8"">3020390</Frequency><Timestamp dt:dt=""r8"">4705180895101</Timestamp><Current dt:dt=""r8"">0</Current><DateUtc dt:dt=""string"">2021-08-10T17:13:23Z</DateUtc></FrequencyChange></FrequencyChanges></Clock>\n"	000_R01_VA_allProc-116-1	60.001	1.0.0.229	1	-2102657846	Professional	2.0.10.356	2.0.10.356	08-10-2021	8/10/2021 5:13:23 PM	13:13:23	2.0.10.252	1	0.0	0.0	91678.0	26.0	91678.0	3999.0	-999999.0	257213.0	0.0	251675.0	0.0	Run1Proc	1	1	1	RunList	6.0	HighSmallED	8000.0	0.0	243675.0	0.0	243675.0	0.0	243675.0	0.0	B1HighSmallEDBlockProc	6.0	1.0	6.0	n/a	n/a	n/a	Run1BlockList	3.0	n/a	n/a	n/a	n/a	n/a	n/a	3.0	1.0	3.0	n/a	n/a	n/a	n/a	n/a	n/a	n/a	n/a	n/a	n/a	n/a	n/a	n/a	n/a	n/a	n/a	n/a	n/a	n/a	n/a	n/a	n/a	n/a	n/a	n/a	n/a	n/a	B1_03.jpg	500.0	0.0	234175.0	0.0	234175.0	0.0	TrialProc1	B1HighSmallEDBlockList	2500.0	0.0	231675.0	0.0	231675.0	0.0	231675.0	2500.0	d	995.0	232670.0	139.998
143	2.5	000_R01_VA_allProc	116	1	"<?xml version=""1.0""?>\n<Clock xmlns:dt=""urn:schemas-microsoft-com:datatypes""><Description dt:dt=""string"">E-Prime Primary Realtime Clock</Description><StartTime><Timestamp dt:dt=""int"">0</Timestamp><DateUtc dt:dt=""string"">2021-08-10T17:13:23Z</DateUtc></StartTime><FrequencyChanges><FrequencyChange><Frequency dt:dt=""r8"">3020390</Frequency><Timestamp dt:dt=""r8"">4705180895101</Timestamp><Current dt:dt=""r8"">0</Current><DateUtc dt:dt=""string"">2021-08-10T17:13:23Z</DateUtc></FrequencyChange></FrequencyChanges></Clock>\n"	000_R01_VA_allProc-116-1	60.001	1.0.0.229	1	-2102657846	Professional	2.0.10.356	2.0.10.356	08-10-2021	8/10/2021 5:13:23 PM	13:13:23	2.0.10.252	1	0.0	0.0	91678.0	26.0	91678.0	3999.0	-999999.0	257213.0	0.0	251675.0	0.0	Run1Proc	1	1	1	RunList	6.0	HighSmallED	8000.0	0.0	243675.0	0.0	243675.0	0.0	243675.0	0.0	B1HighSmallEDBlockProc	6.0	1.0	6.0	n/a	n/a	n/a	Run1BlockList	4.0	n/a	n/a	n/a	n/a	n/a	n/a	4.0	1.0	4.0	n/a	n/a	n/a	n/a	n/a	n/a	n/a	n/a	n/a	n/a	n/a	n/a	n/a	n/a	n/a	n/a	n/a	n/a	n/a	n/a	n/a	n/a	n/a	n/a	n/a	n/a	n/a	B1_04.jpg	500.0	0.0	237175.0	0.0	237175.0	0.0	TrialProc1	B1HighSmallEDBlockList	2500.0	0.0	234675.0	0.0	234675.0	0.0	234675.0	2500.0	d	1107.0	235782.0	142.998
146	2.5	000_R01_VA_allProc	116	1	"<?xml version=""1.0""?>\n<Clock xmlns:dt=""urn:schemas-microsoft-com:datatypes""><Description dt:dt=""string"">E-Prime Primary Realtime Clock</Description><StartTime><Timestamp dt:dt=""int"">0</Timestamp><DateUtc dt:dt=""string"">2021-08-10T17:13:23Z</DateUtc></StartTime><FrequencyChanges><FrequencyChange><Frequency dt:dt=""r8"">3020390</Frequency><Timestamp dt:dt=""r8"">4705180895101</Timestamp><Current dt:dt=""r8"">0</Current><DateUtc dt:dt=""string"">2021-08-10T17:13:23Z</DateUtc></FrequencyChange></FrequencyChanges></Clock>\n"	000_R01_VA_allProc-116-1	60.001	1.0.0.229	1	-2102657846	Professional	2.0.10.356	2.0.10.356	08-10-2021	8/10/2021 5:13:23 PM	13:13:23	2.0.10.252	1	0.0	0.0	91678.0	26.0	91678.0	3999.0	-999999.0	257213.0	0.0	251675.0	0.0	Run1Proc	1	1	1	RunList	6.0	HighSmallED	8000.0	0.0	243675.0	0.0	243675.0	0.0	243675.0	0.0	B1HighSmallEDBlockProc	6.0	1.0	6.0	n/a	n/a	n/a	Run1BlockList	5.0	n/a	n/a	n/a	n/a	n/a	n/a	5.0	1.0	5.0	n/a	n/a	n/a	n/a	n/a	n/a	n/a	n/a	n/a	n/a	n/a	n/a	n/a	n/a	n/a	n/a	n/a	n/a	n/a	n/a	n/a	n/a	n/a	n/a	n/a	n/a	n/a	B1_05.jpg	500.0	0.0	240175.0	0.0	240175.0	0.0	TrialProc1	B1HighSmallEDBlockList	2500.0	0.0	237675.0	0.0	237675.0	0.0	237675.0	2500.0	d	1515.0	239190.0	145.998
149	2.5	000_R01_VA_allProc	116	1	"<?xml version=""1.0""?>\n<Clock xmlns:dt=""urn:schemas-microsoft-com:datatypes""><Description dt:dt=""string"">E-Prime Primary Realtime Clock</Description><StartTime><Timestamp dt:dt=""int"">0</Timestamp><DateUtc dt:dt=""string"">2021-08-10T17:13:23Z</DateUtc></StartTime><FrequencyChanges><FrequencyChange><Frequency dt:dt=""r8"">3020390</Frequency><Timestamp dt:dt=""r8"">4705180895101</Timestamp><Current dt:dt=""r8"">0</Current><DateUtc dt:dt=""string"">2021-08-10T17:13:23Z</DateUtc></FrequencyChange></FrequencyChanges></Clock>\n"	000_R01_VA_allProc-116-1	60.001	1.0.0.229	1	-2102657846	Professional	2.0.10.356	2.0.10.356	08-10-2021	8/10/2021 5:13:23 PM	13:13:23	2.0.10.252	1	0.0	0.0	91678.0	26.0	91678.0	3999.0	-999999.0	257213.0	0.0	251675.0	0.0	Run1Proc	1	1	1	RunList	6.0	HighSmallED	8000.0	0.0	243675.0	0.0	243675.0	0.0	243675.0	0.0	B1HighSmallEDBlockProc	6.0	1.0	6.0	n/a	n/a	n/a	Run1BlockList	6.0	n/a	n/a	n/a	n/a	n/a	n/a	6.0	1.0	6.0	n/a	n/a	n/a	n/a	n/a	n/a	n/a	n/a	n/a	n/a	n/a	n/a	n/a	n/a	n/a	n/a	n/a	n/a	n/a	n/a	n/a	n/a	n/a	n/a	n/a	n/a	n/a	B1_06.jpg	500.0	0.0	243175.0	0.0	243175.0	0.0	TrialProc1	B1HighSmallEDBlockList	2500.0	0.0	240675.0	0.0	240675.0	0.0	240675.0	2500.0	d	1019.0	241694.0	148.998
