onset	duration	experiment_name	sub	ses	clock_information	datafile_basename	display_refreshrate	experiment_version	group	randomseed	runtime_capabilities	runtime_version	runtimeversionexpected	session_date	session_start_date_time_utc	session_time	studio_version	block	fixation2trs_durationerror	fixation2trs_offsetdelay	fixation2trs_offsettime	fixation2trs_onsetdelay	fixation2trs_onsettime	fixation2trs_onsettoonsettime	goodwork_durationerror	goodwork_finishtime	goodwork_onsetdelay	goodwork_onsettime	goodwork_onsettoonsettime	procedure_block	runlist	runlist_cycle	runlist_sample	running_block	trial	condition	interblockinterval_duration	interblockinterval_durationerror	interblockinterval_finishtime	interblockinterval_offsetdelay	interblockinterval_offsettime	interblockinterval_onsetdelay	interblockinterval_onsettime	interblockinterval_onsettoonsettime	procedure_trial	run1blocklist	run1blocklist_cycle	run1blocklist_sample	run2blocklist	run2blocklist_cycle	run2blocklist_sample	run3blocklist	run3blocklist_cycle	run3blocklist_sample	run4blocklist	run4blocklist_cycle	run4blocklist_sample	run5blocklist	run5blocklist_cycle	run5blocklist_sample	running_trial	subtrial	a1highlargeedblocklist	a1highlargeedblocklist_cycle	a1highlargeedblocklist_sample	a2highlargeedblocklist	a2highlargeedblocklist_cycle	a2highlargeedblocklist_sample	a3highlargeedblocklist	a3highlargeedblocklist_cycle	a3highlargeedblocklist_sample	a4highlargeedblocklist	a4highlargeedblocklist_cycle	a4highlargeedblocklist_sample	a5highlargeedblocklist	a5highlargeedblocklist_cycle	a5highlargeedblocklist_sample	b1highsmalledblocklist	b1highsmalledblocklist_cycle	b1highsmalledblocklist_sample	b2highsmalledblocklist	b2highsmalledblocklist_cycle	b2highsmalledblocklist_sample	b3highsmalledblocklist	b3highsmalledblocklist_cycle	b3highsmalledblocklist_sample	b4highsmalledblocklist	b4highsmalledblocklist_cycle	b4highsmalledblocklist_sample	b5highsmalledblocklist	b5highsmalledblocklist_cycle	b5highsmalledblocklist_sample	c1lowlargeedblocklist	c1lowlargeedblocklist_cycle	c1lowlargeedblocklist_sample	c2lowlargeedblocklist	c2lowlargeedblocklist_cycle	c2lowlargeedblocklist_sample	c3lowlargeedblocklist	c3lowlargeedblocklist_cycle	c3lowlargeedblocklist_sample	c4lowlargeedblocklist	c4lowlargeedblocklist_cycle	c4lowlargeedblocklist_sample	c5lowlargeedblocklist	c5lowlargeedblocklist_cycle	c5lowlargeedblocklist_sample	d1lowsmalledblocklist	d1lowsmalledblocklist_cycle	d1lowsmalledblocklist_sample	d2highlargeedblocklist	d2highlargeedblocklist_cycle	d2highlargeedblocklist_sample	d3lowsmalledblocklist	d3lowsmalledblocklist_cycle	d3lowsmalledblocklist_sample	d4lowsmalledblocklist	d4lowsmalledblocklist_cycle	d4lowsmalledblocklist_sample	d5lowsmalledblocklist	d5lowsmalledblocklist_cycle	d5lowsmalledblocklist_sample	e1officelargeblocklist	e1officelargeblocklist_cycle	e1officelargeblocklist_sample	e2officelargeblocklist	e2officelargeblocklist_cycle	e2officelargeblocklist_sample	e3officelargeblocklist	e3officelargeblocklist_cycle	e3officelargeblocklist_sample	e4officelargeblocklist	e4officelargeblocklist_cycle	e4officelargeblocklist_sample	e5officelargeblocklist	e5officelargeblocklist_cycle	e5officelargeblocklist_sample	f1officesmallblocklist	f1officesmallblocklist_cycle	f1officesmallblocklist_sample	f2officesmallblocklist	f2officesmallblocklist_cycle	f2officesmallblocklist_sample	f3officesmallblocklist	f3officesmallblocklist_cycle	f3officesmallblocklist_sample	f4officesmallblocklist	f4officesmallblocklist_cycle	f4officesmallblocklist_sample	f5officesmallblocklist	f5officesmallblocklist_cycle	f5officesmallblocklist_sample	filename	isi_duration	isi_durationerror	isi_finishtime	isi_onsetdelay	isi_onsettime	isi_onsettoonsettime	procedure_subtrial	running_subtrial	stimslide_duration	stimslide_durationerror	stimslide_finishtime	stimslide_offsetdelay	stimslide_offsettime	stimslide_onsetdelay	stimslide_onsettime	stimslide_onsettoonsettime	stimslide_resp	stimslide_rt	stimslide_rttime	onset_unrounded
4	2.5	000_R01_VA_allProc	132	1	"<?xml version=""1.0""?>\n<Clock xmlns:dt=""urn:schemas-microsoft-com:datatypes""><Description dt:dt=""string"">E-Prime Primary Realtime Clock</Description><StartTime><Timestamp dt:dt=""int"">0</Timestamp><DateUtc dt:dt=""string"">2022-06-23T16:43:59Z</DateUtc></StartTime><FrequencyChanges><FrequencyChange><Frequency dt:dt=""r8"">3020380</Frequency><Timestamp dt:dt=""r8"">275391879198</Timestamp><Current dt:dt=""r8"">0</Current><DateUtc dt:dt=""string"">2022-06-23T16:43:59Z</DateUtc></FrequencyChange></FrequencyChanges></Clock>\n"	000_R01_VA_allProc-132-1	60.001	1.0.0.229	1	514577090	Professional	2.0.10.356	2.0.10.356	06-23-2022	6/23/2022 4:43:59 PM	12:43:59	2.0.10.252	2	0	0	281073	23	281073	4000	-999999	444852	0	441071	0	Run3Proc	2	1	2	RunList	1	LowSmallED	8000	0	303073	0	303073	0	303073	0	D3LowSmallEDBlockProc	n/a	n/a	n/a	n/a	n/a	n/a	1.0	1.0	1.0	n/a	n/a	n/a	n/a	n/a	n/a	Run3BlockList	1	n/a	n/a	n/a	n/a	n/a	n/a	n/a	n/a	n/a	n/a	n/a	n/a	n/a	n/a	n/a	n/a	n/a	n/a	n/a	n/a	n/a	n/a	n/a	n/a	n/a	n/a	n/a	n/a	n/a	n/a	n/a	n/a	n/a	n/a	n/a	n/a	n/a	n/a	n/a	n/a	n/a	n/a	n/a	n/a	n/a	n/a	n/a	n/a	n/a	n/a	n/a	1.0	1.0	1.0	n/a	n/a	n/a	n/a	n/a	n/a	n/a	n/a	n/a	n/a	n/a	n/a	n/a	n/a	n/a	n/a	n/a	n/a	n/a	n/a	n/a	n/a	n/a	n/a	n/a	n/a	n/a	n/a	n/a	n/a	n/a	n/a	n/a	n/a	n/a	n/a	D3_01.jpg	500	0	287573	0	287573	0	TrialProc1	D3LowSmallEDBlockList	2500	0	285073	0	285073	0	285073	2500	c	1638	286711	4.0
7	2.5	000_R01_VA_allProc	132	1	"<?xml version=""1.0""?>\n<Clock xmlns:dt=""urn:schemas-microsoft-com:datatypes""><Description dt:dt=""string"">E-Prime Primary Realtime Clock</Description><StartTime><Timestamp dt:dt=""int"">0</Timestamp><DateUtc dt:dt=""string"">2022-06-23T16:43:59Z</DateUtc></StartTime><FrequencyChanges><FrequencyChange><Frequency dt:dt=""r8"">3020380</Frequency><Timestamp dt:dt=""r8"">275391879198</Timestamp><Current dt:dt=""r8"">0</Current><DateUtc dt:dt=""string"">2022-06-23T16:43:59Z</DateUtc></FrequencyChange></FrequencyChanges></Clock>\n"	000_R01_VA_allProc-132-1	60.001	1.0.0.229	1	514577090	Professional	2.0.10.356	2.0.10.356	06-23-2022	6/23/2022 4:43:59 PM	12:43:59	2.0.10.252	2	0	0	281073	23	281073	4000	-999999	444852	0	441071	0	Run3Proc	2	1	2	RunList	1	LowSmallED	8000	0	303073	0	303073	0	303073	0	D3LowSmallEDBlockProc	n/a	n/a	n/a	n/a	n/a	n/a	1.0	1.0	1.0	n/a	n/a	n/a	n/a	n/a	n/a	Run3BlockList	2	n/a	n/a	n/a	n/a	n/a	n/a	n/a	n/a	n/a	n/a	n/a	n/a	n/a	n/a	n/a	n/a	n/a	n/a	n/a	n/a	n/a	n/a	n/a	n/a	n/a	n/a	n/a	n/a	n/a	n/a	n/a	n/a	n/a	n/a	n/a	n/a	n/a	n/a	n/a	n/a	n/a	n/a	n/a	n/a	n/a	n/a	n/a	n/a	n/a	n/a	n/a	2.0	1.0	2.0	n/a	n/a	n/a	n/a	n/a	n/a	n/a	n/a	n/a	n/a	n/a	n/a	n/a	n/a	n/a	n/a	n/a	n/a	n/a	n/a	n/a	n/a	n/a	n/a	n/a	n/a	n/a	n/a	n/a	n/a	n/a	n/a	n/a	n/a	n/a	n/a	D3_02.jpg	500	0	290573	0	290573	0	TrialProc1	D3LowSmallEDBlockList	2500	0	288073	0	288073	0	288073	2500	c	2446	290519	7.0
10	2.5	000_R01_VA_allProc	132	1	"<?xml version=""1.0""?>\n<Clock xmlns:dt=""urn:schemas-microsoft-com:datatypes""><Description dt:dt=""string"">E-Prime Primary Realtime Clock</Description><StartTime><Timestamp dt:dt=""int"">0</Timestamp><DateUtc dt:dt=""string"">2022-06-23T16:43:59Z</DateUtc></StartTime><FrequencyChanges><FrequencyChange><Frequency dt:dt=""r8"">3020380</Frequency><Timestamp dt:dt=""r8"">275391879198</Timestamp><Current dt:dt=""r8"">0</Current><DateUtc dt:dt=""string"">2022-06-23T16:43:59Z</DateUtc></FrequencyChange></FrequencyChanges></Clock>\n"	000_R01_VA_allProc-132-1	60.001	1.0.0.229	1	514577090	Professional	2.0.10.356	2.0.10.356	06-23-2022	6/23/2022 4:43:59 PM	12:43:59	2.0.10.252	2	0	0	281073	23	281073	4000	-999999	444852	0	441071	0	Run3Proc	2	1	2	RunList	1	LowSmallED	8000	0	303073	0	303073	0	303073	0	D3LowSmallEDBlockProc	n/a	n/a	n/a	n/a	n/a	n/a	1.0	1.0	1.0	n/a	n/a	n/a	n/a	n/a	n/a	Run3BlockList	3	n/a	n/a	n/a	n/a	n/a	n/a	n/a	n/a	n/a	n/a	n/a	n/a	n/a	n/a	n/a	n/a	n/a	n/a	n/a	n/a	n/a	n/a	n/a	n/a	n/a	n/a	n/a	n/a	n/a	n/a	n/a	n/a	n/a	n/a	n/a	n/a	n/a	n/a	n/a	n/a	n/a	n/a	n/a	n/a	n/a	n/a	n/a	n/a	n/a	n/a	n/a	3.0	1.0	3.0	n/a	n/a	n/a	n/a	n/a	n/a	n/a	n/a	n/a	n/a	n/a	n/a	n/a	n/a	n/a	n/a	n/a	n/a	n/a	n/a	n/a	n/a	n/a	n/a	n/a	n/a	n/a	n/a	n/a	n/a	n/a	n/a	n/a	n/a	n/a	n/a	D3_03.jpg	500	0	293573	0	293573	0	TrialProc1	D3LowSmallEDBlockList	2500	0	291073	0	291073	0	291073	2500	d	1782	292855	10.0
13	2.5	000_R01_VA_allProc	132	1	"<?xml version=""1.0""?>\n<Clock xmlns:dt=""urn:schemas-microsoft-com:datatypes""><Description dt:dt=""string"">E-Prime Primary Realtime Clock</Description><StartTime><Timestamp dt:dt=""int"">0</Timestamp><DateUtc dt:dt=""string"">2022-06-23T16:43:59Z</DateUtc></StartTime><FrequencyChanges><FrequencyChange><Frequency dt:dt=""r8"">3020380</Frequency><Timestamp dt:dt=""r8"">275391879198</Timestamp><Current dt:dt=""r8"">0</Current><DateUtc dt:dt=""string"">2022-06-23T16:43:59Z</DateUtc></FrequencyChange></FrequencyChanges></Clock>\n"	000_R01_VA_allProc-132-1	60.001	1.0.0.229	1	514577090	Professional	2.0.10.356	2.0.10.356	06-23-2022	6/23/2022 4:43:59 PM	12:43:59	2.0.10.252	2	0	0	281073	23	281073	4000	-999999	444852	0	441071	0	Run3Proc	2	1	2	RunList	1	LowSmallED	8000	0	303073	0	303073	0	303073	0	D3LowSmallEDBlockProc	n/a	n/a	n/a	n/a	n/a	n/a	1.0	1.0	1.0	n/a	n/a	n/a	n/a	n/a	n/a	Run3BlockList	4	n/a	n/a	n/a	n/a	n/a	n/a	n/a	n/a	n/a	n/a	n/a	n/a	n/a	n/a	n/a	n/a	n/a	n/a	n/a	n/a	n/a	n/a	n/a	n/a	n/a	n/a	n/a	n/a	n/a	n/a	n/a	n/a	n/a	n/a	n/a	n/a	n/a	n/a	n/a	n/a	n/a	n/a	n/a	n/a	n/a	n/a	n/a	n/a	n/a	n/a	n/a	4.0	1.0	4.0	n/a	n/a	n/a	n/a	n/a	n/a	n/a	n/a	n/a	n/a	n/a	n/a	n/a	n/a	n/a	n/a	n/a	n/a	n/a	n/a	n/a	n/a	n/a	n/a	n/a	n/a	n/a	n/a	n/a	n/a	n/a	n/a	n/a	n/a	n/a	n/a	D3_04.jpg	500	0	296573	0	296573	0	TrialProc1	D3LowSmallEDBlockList	2500	0	294073	0	294073	0	294073	2500	c	1598	295671	13.0
16	2.5	000_R01_VA_allProc	132	1	"<?xml version=""1.0""?>\n<Clock xmlns:dt=""urn:schemas-microsoft-com:datatypes""><Description dt:dt=""string"">E-Prime Primary Realtime Clock</Description><StartTime><Timestamp dt:dt=""int"">0</Timestamp><DateUtc dt:dt=""string"">2022-06-23T16:43:59Z</DateUtc></StartTime><FrequencyChanges><FrequencyChange><Frequency dt:dt=""r8"">3020380</Frequency><Timestamp dt:dt=""r8"">275391879198</Timestamp><Current dt:dt=""r8"">0</Current><DateUtc dt:dt=""string"">2022-06-23T16:43:59Z</DateUtc></FrequencyChange></FrequencyChanges></Clock>\n"	000_R01_VA_allProc-132-1	60.001	1.0.0.229	1	514577090	Professional	2.0.10.356	2.0.10.356	06-23-2022	6/23/2022 4:43:59 PM	12:43:59	2.0.10.252	2	0	0	281073	23	281073	4000	-999999	444852	0	441071	0	Run3Proc	2	1	2	RunList	1	LowSmallED	8000	0	303073	0	303073	0	303073	0	D3LowSmallEDBlockProc	n/a	n/a	n/a	n/a	n/a	n/a	1.0	1.0	1.0	n/a	n/a	n/a	n/a	n/a	n/a	Run3BlockList	5	n/a	n/a	n/a	n/a	n/a	n/a	n/a	n/a	n/a	n/a	n/a	n/a	n/a	n/a	n/a	n/a	n/a	n/a	n/a	n/a	n/a	n/a	n/a	n/a	n/a	n/a	n/a	n/a	n/a	n/a	n/a	n/a	n/a	n/a	n/a	n/a	n/a	n/a	n/a	n/a	n/a	n/a	n/a	n/a	n/a	n/a	n/a	n/a	n/a	n/a	n/a	5.0	1.0	5.0	n/a	n/a	n/a	n/a	n/a	n/a	n/a	n/a	n/a	n/a	n/a	n/a	n/a	n/a	n/a	n/a	n/a	n/a	n/a	n/a	n/a	n/a	n/a	n/a	n/a	n/a	n/a	n/a	n/a	n/a	n/a	n/a	n/a	n/a	n/a	n/a	D3_05.jpg	500	0	299573	0	299573	0	TrialProc1	D3LowSmallEDBlockList	2500	0	297073	0	297073	0	297073	2500	d	1198	298271	16.0
19	2.5	000_R01_VA_allProc	132	1	"<?xml version=""1.0""?>\n<Clock xmlns:dt=""urn:schemas-microsoft-com:datatypes""><Description dt:dt=""string"">E-Prime Primary Realtime Clock</Description><StartTime><Timestamp dt:dt=""int"">0</Timestamp><DateUtc dt:dt=""string"">2022-06-23T16:43:59Z</DateUtc></StartTime><FrequencyChanges><FrequencyChange><Frequency dt:dt=""r8"">3020380</Frequency><Timestamp dt:dt=""r8"">275391879198</Timestamp><Current dt:dt=""r8"">0</Current><DateUtc dt:dt=""string"">2022-06-23T16:43:59Z</DateUtc></FrequencyChange></FrequencyChanges></Clock>\n"	000_R01_VA_allProc-132-1	60.001	1.0.0.229	1	514577090	Professional	2.0.10.356	2.0.10.356	06-23-2022	6/23/2022 4:43:59 PM	12:43:59	2.0.10.252	2	0	0	281073	23	281073	4000	-999999	444852	0	441071	0	Run3Proc	2	1	2	RunList	1	LowSmallED	8000	0	303073	0	303073	0	303073	0	D3LowSmallEDBlockProc	n/a	n/a	n/a	n/a	n/a	n/a	1.0	1.0	1.0	n/a	n/a	n/a	n/a	n/a	n/a	Run3BlockList	6	n/a	n/a	n/a	n/a	n/a	n/a	n/a	n/a	n/a	n/a	n/a	n/a	n/a	n/a	n/a	n/a	n/a	n/a	n/a	n/a	n/a	n/a	n/a	n/a	n/a	n/a	n/a	n/a	n/a	n/a	n/a	n/a	n/a	n/a	n/a	n/a	n/a	n/a	n/a	n/a	n/a	n/a	n/a	n/a	n/a	n/a	n/a	n/a	n/a	n/a	n/a	6.0	1.0	6.0	n/a	n/a	n/a	n/a	n/a	n/a	n/a	n/a	n/a	n/a	n/a	n/a	n/a	n/a	n/a	n/a	n/a	n/a	n/a	n/a	n/a	n/a	n/a	n/a	n/a	n/a	n/a	n/a	n/a	n/a	n/a	n/a	n/a	n/a	n/a	n/a	D3_06.jpg	500	0	302573	0	302573	0	TrialProc1	D3LowSmallEDBlockList	2500	0	300073	0	300073	0	300073	2500	c	1390	301463	19.0
30	2.5	000_R01_VA_allProc	132	1	"<?xml version=""1.0""?>\n<Clock xmlns:dt=""urn:schemas-microsoft-com:datatypes""><Description dt:dt=""string"">E-Prime Primary Realtime Clock</Description><StartTime><Timestamp dt:dt=""int"">0</Timestamp><DateUtc dt:dt=""string"">2022-06-23T16:43:59Z</DateUtc></StartTime><FrequencyChanges><FrequencyChange><Frequency dt:dt=""r8"">3020380</Frequency><Timestamp dt:dt=""r8"">275391879198</Timestamp><Current dt:dt=""r8"">0</Current><DateUtc dt:dt=""string"">2022-06-23T16:43:59Z</DateUtc></FrequencyChange></FrequencyChanges></Clock>\n"	000_R01_VA_allProc-132-1	60.001	1.0.0.229	1	514577090	Professional	2.0.10.356	2.0.10.356	06-23-2022	6/23/2022 4:43:59 PM	12:43:59	2.0.10.252	2	0	0	281073	23	281073	4000	-999999	444852	0	441071	0	Run3Proc	2	1	2	RunList	2	OfficeLarge	8000	0	329072	0	329072	0	329072	0	E3OfficeLargeBlockProc	n/a	n/a	n/a	n/a	n/a	n/a	2.0	1.0	2.0	n/a	n/a	n/a	n/a	n/a	n/a	Run3BlockList	1	n/a	n/a	n/a	n/a	n/a	n/a	n/a	n/a	n/a	n/a	n/a	n/a	n/a	n/a	n/a	n/a	n/a	n/a	n/a	n/a	n/a	n/a	n/a	n/a	n/a	n/a	n/a	n/a	n/a	n/a	n/a	n/a	n/a	n/a	n/a	n/a	n/a	n/a	n/a	n/a	n/a	n/a	n/a	n/a	n/a	n/a	n/a	n/a	n/a	n/a	n/a	n/a	n/a	n/a	n/a	n/a	n/a	n/a	n/a	n/a	n/a	n/a	n/a	n/a	n/a	n/a	1.0	1.0	1.0	n/a	n/a	n/a	n/a	n/a	n/a	n/a	n/a	n/a	n/a	n/a	n/a	n/a	n/a	n/a	n/a	n/a	n/a	n/a	n/a	n/a	E3_01.jpg	500	0	313573	0	313573	0	TrialProc1	E3OfficeLargeBlockList	2500	0	311073	0	311073	0	311073	2500	c	1461	312534	30.0
33	2.5	000_R01_VA_allProc	132	1	"<?xml version=""1.0""?>\n<Clock xmlns:dt=""urn:schemas-microsoft-com:datatypes""><Description dt:dt=""string"">E-Prime Primary Realtime Clock</Description><StartTime><Timestamp dt:dt=""int"">0</Timestamp><DateUtc dt:dt=""string"">2022-06-23T16:43:59Z</DateUtc></StartTime><FrequencyChanges><FrequencyChange><Frequency dt:dt=""r8"">3020380</Frequency><Timestamp dt:dt=""r8"">275391879198</Timestamp><Current dt:dt=""r8"">0</Current><DateUtc dt:dt=""string"">2022-06-23T16:43:59Z</DateUtc></FrequencyChange></FrequencyChanges></Clock>\n"	000_R01_VA_allProc-132-1	60.001	1.0.0.229	1	514577090	Professional	2.0.10.356	2.0.10.356	06-23-2022	6/23/2022 4:43:59 PM	12:43:59	2.0.10.252	2	0	0	281073	23	281073	4000	-999999	444852	0	441071	0	Run3Proc	2	1	2	RunList	2	OfficeLarge	8000	0	329072	0	329072	0	329072	0	E3OfficeLargeBlockProc	n/a	n/a	n/a	n/a	n/a	n/a	2.0	1.0	2.0	n/a	n/a	n/a	n/a	n/a	n/a	Run3BlockList	2	n/a	n/a	n/a	n/a	n/a	n/a	n/a	n/a	n/a	n/a	n/a	n/a	n/a	n/a	n/a	n/a	n/a	n/a	n/a	n/a	n/a	n/a	n/a	n/a	n/a	n/a	n/a	n/a	n/a	n/a	n/a	n/a	n/a	n/a	n/a	n/a	n/a	n/a	n/a	n/a	n/a	n/a	n/a	n/a	n/a	n/a	n/a	n/a	n/a	n/a	n/a	n/a	n/a	n/a	n/a	n/a	n/a	n/a	n/a	n/a	n/a	n/a	n/a	n/a	n/a	n/a	2.0	1.0	2.0	n/a	n/a	n/a	n/a	n/a	n/a	n/a	n/a	n/a	n/a	n/a	n/a	n/a	n/a	n/a	n/a	n/a	n/a	n/a	n/a	n/a	E3_02.jpg	500	0	316573	0	316573	0	TrialProc1	E3OfficeLargeBlockList	2500	0	314073	0	314073	0	314073	2500	c	2109	316182	33.0
36	2.5	000_R01_VA_allProc	132	1	"<?xml version=""1.0""?>\n<Clock xmlns:dt=""urn:schemas-microsoft-com:datatypes""><Description dt:dt=""string"">E-Prime Primary Realtime Clock</Description><StartTime><Timestamp dt:dt=""int"">0</Timestamp><DateUtc dt:dt=""string"">2022-06-23T16:43:59Z</DateUtc></StartTime><FrequencyChanges><FrequencyChange><Frequency dt:dt=""r8"">3020380</Frequency><Timestamp dt:dt=""r8"">275391879198</Timestamp><Current dt:dt=""r8"">0</Current><DateUtc dt:dt=""string"">2022-06-23T16:43:59Z</DateUtc></FrequencyChange></FrequencyChanges></Clock>\n"	000_R01_VA_allProc-132-1	60.001	1.0.0.229	1	514577090	Professional	2.0.10.356	2.0.10.356	06-23-2022	6/23/2022 4:43:59 PM	12:43:59	2.0.10.252	2	0	0	281073	23	281073	4000	-999999	444852	0	441071	0	Run3Proc	2	1	2	RunList	2	OfficeLarge	8000	0	329072	0	329072	0	329072	0	E3OfficeLargeBlockProc	n/a	n/a	n/a	n/a	n/a	n/a	2.0	1.0	2.0	n/a	n/a	n/a	n/a	n/a	n/a	Run3BlockList	3	n/a	n/a	n/a	n/a	n/a	n/a	n/a	n/a	n/a	n/a	n/a	n/a	n/a	n/a	n/a	n/a	n/a	n/a	n/a	n/a	n/a	n/a	n/a	n/a	n/a	n/a	n/a	n/a	n/a	n/a	n/a	n/a	n/a	n/a	n/a	n/a	n/a	n/a	n/a	n/a	n/a	n/a	n/a	n/a	n/a	n/a	n/a	n/a	n/a	n/a	n/a	n/a	n/a	n/a	n/a	n/a	n/a	n/a	n/a	n/a	n/a	n/a	n/a	n/a	n/a	n/a	3.0	1.0	3.0	n/a	n/a	n/a	n/a	n/a	n/a	n/a	n/a	n/a	n/a	n/a	n/a	n/a	n/a	n/a	n/a	n/a	n/a	n/a	n/a	n/a	E3_03.jpg	500	1	319573	-1	319572	0	TrialProc1	E3OfficeLargeBlockList	2500	0	317073	0	317073	0	317073	2499	d	1157	318230	36.0
39	2.5	000_R01_VA_allProc	132	1	"<?xml version=""1.0""?>\n<Clock xmlns:dt=""urn:schemas-microsoft-com:datatypes""><Description dt:dt=""string"">E-Prime Primary Realtime Clock</Description><StartTime><Timestamp dt:dt=""int"">0</Timestamp><DateUtc dt:dt=""string"">2022-06-23T16:43:59Z</DateUtc></StartTime><FrequencyChanges><FrequencyChange><Frequency dt:dt=""r8"">3020380</Frequency><Timestamp dt:dt=""r8"">275391879198</Timestamp><Current dt:dt=""r8"">0</Current><DateUtc dt:dt=""string"">2022-06-23T16:43:59Z</DateUtc></FrequencyChange></FrequencyChanges></Clock>\n"	000_R01_VA_allProc-132-1	60.001	1.0.0.229	1	514577090	Professional	2.0.10.356	2.0.10.356	06-23-2022	6/23/2022 4:43:59 PM	12:43:59	2.0.10.252	2	0	0	281073	23	281073	4000	-999999	444852	0	441071	0	Run3Proc	2	1	2	RunList	2	OfficeLarge	8000	0	329072	0	329072	0	329072	0	E3OfficeLargeBlockProc	n/a	n/a	n/a	n/a	n/a	n/a	2.0	1.0	2.0	n/a	n/a	n/a	n/a	n/a	n/a	Run3BlockList	4	n/a	n/a	n/a	n/a	n/a	n/a	n/a	n/a	n/a	n/a	n/a	n/a	n/a	n/a	n/a	n/a	n/a	n/a	n/a	n/a	n/a	n/a	n/a	n/a	n/a	n/a	n/a	n/a	n/a	n/a	n/a	n/a	n/a	n/a	n/a	n/a	n/a	n/a	n/a	n/a	n/a	n/a	n/a	n/a	n/a	n/a	n/a	n/a	n/a	n/a	n/a	n/a	n/a	n/a	n/a	n/a	n/a	n/a	n/a	n/a	n/a	n/a	n/a	n/a	n/a	n/a	4.0	1.0	4.0	n/a	n/a	n/a	n/a	n/a	n/a	n/a	n/a	n/a	n/a	n/a	n/a	n/a	n/a	n/a	n/a	n/a	n/a	n/a	n/a	n/a	E3_04.jpg	500	1	322573	0	322572	0	TrialProc1	E3OfficeLargeBlockList	2500	1	320073	1	320073	0	320072	2500	d	1798	321870	38.999
42	2.5	000_R01_VA_allProc	132	1	"<?xml version=""1.0""?>\n<Clock xmlns:dt=""urn:schemas-microsoft-com:datatypes""><Description dt:dt=""string"">E-Prime Primary Realtime Clock</Description><StartTime><Timestamp dt:dt=""int"">0</Timestamp><DateUtc dt:dt=""string"">2022-06-23T16:43:59Z</DateUtc></StartTime><FrequencyChanges><FrequencyChange><Frequency dt:dt=""r8"">3020380</Frequency><Timestamp dt:dt=""r8"">275391879198</Timestamp><Current dt:dt=""r8"">0</Current><DateUtc dt:dt=""string"">2022-06-23T16:43:59Z</DateUtc></FrequencyChange></FrequencyChanges></Clock>\n"	000_R01_VA_allProc-132-1	60.001	1.0.0.229	1	514577090	Professional	2.0.10.356	2.0.10.356	06-23-2022	6/23/2022 4:43:59 PM	12:43:59	2.0.10.252	2	0	0	281073	23	281073	4000	-999999	444852	0	441071	0	Run3Proc	2	1	2	RunList	2	OfficeLarge	8000	0	329072	0	329072	0	329072	0	E3OfficeLargeBlockProc	n/a	n/a	n/a	n/a	n/a	n/a	2.0	1.0	2.0	n/a	n/a	n/a	n/a	n/a	n/a	Run3BlockList	5	n/a	n/a	n/a	n/a	n/a	n/a	n/a	n/a	n/a	n/a	n/a	n/a	n/a	n/a	n/a	n/a	n/a	n/a	n/a	n/a	n/a	n/a	n/a	n/a	n/a	n/a	n/a	n/a	n/a	n/a	n/a	n/a	n/a	n/a	n/a	n/a	n/a	n/a	n/a	n/a	n/a	n/a	n/a	n/a	n/a	n/a	n/a	n/a	n/a	n/a	n/a	n/a	n/a	n/a	n/a	n/a	n/a	n/a	n/a	n/a	n/a	n/a	n/a	n/a	n/a	n/a	5.0	1.0	5.0	n/a	n/a	n/a	n/a	n/a	n/a	n/a	n/a	n/a	n/a	n/a	n/a	n/a	n/a	n/a	n/a	n/a	n/a	n/a	n/a	n/a	E3_05.jpg	500	0	325573	0	325572	0	TrialProc1	E3OfficeLargeBlockList	2500	1	323073	1	323073	0	323072	2500	d	1246	324318	41.999
45	2.5	000_R01_VA_allProc	132	1	"<?xml version=""1.0""?>\n<Clock xmlns:dt=""urn:schemas-microsoft-com:datatypes""><Description dt:dt=""string"">E-Prime Primary Realtime Clock</Description><StartTime><Timestamp dt:dt=""int"">0</Timestamp><DateUtc dt:dt=""string"">2022-06-23T16:43:59Z</DateUtc></StartTime><FrequencyChanges><FrequencyChange><Frequency dt:dt=""r8"">3020380</Frequency><Timestamp dt:dt=""r8"">275391879198</Timestamp><Current dt:dt=""r8"">0</Current><DateUtc dt:dt=""string"">2022-06-23T16:43:59Z</DateUtc></FrequencyChange></FrequencyChanges></Clock>\n"	000_R01_VA_allProc-132-1	60.001	1.0.0.229	1	514577090	Professional	2.0.10.356	2.0.10.356	06-23-2022	6/23/2022 4:43:59 PM	12:43:59	2.0.10.252	2	0	0	281073	23	281073	4000	-999999	444852	0	441071	0	Run3Proc	2	1	2	RunList	2	OfficeLarge	8000	0	329072	0	329072	0	329072	0	E3OfficeLargeBlockProc	n/a	n/a	n/a	n/a	n/a	n/a	2.0	1.0	2.0	n/a	n/a	n/a	n/a	n/a	n/a	Run3BlockList	6	n/a	n/a	n/a	n/a	n/a	n/a	n/a	n/a	n/a	n/a	n/a	n/a	n/a	n/a	n/a	n/a	n/a	n/a	n/a	n/a	n/a	n/a	n/a	n/a	n/a	n/a	n/a	n/a	n/a	n/a	n/a	n/a	n/a	n/a	n/a	n/a	n/a	n/a	n/a	n/a	n/a	n/a	n/a	n/a	n/a	n/a	n/a	n/a	n/a	n/a	n/a	n/a	n/a	n/a	n/a	n/a	n/a	n/a	n/a	n/a	n/a	n/a	n/a	n/a	n/a	n/a	6.0	1.0	6.0	n/a	n/a	n/a	n/a	n/a	n/a	n/a	n/a	n/a	n/a	n/a	n/a	n/a	n/a	n/a	n/a	n/a	n/a	n/a	n/a	n/a	E3_06.jpg	500	0	328572	0	328572	0	TrialProc1	E3OfficeLargeBlockList	2500	0	326073	0	326072	0	326072	2500	d	1454	327526	44.999
56	2.5	000_R01_VA_allProc	132	1	"<?xml version=""1.0""?>\n<Clock xmlns:dt=""urn:schemas-microsoft-com:datatypes""><Description dt:dt=""string"">E-Prime Primary Realtime Clock</Description><StartTime><Timestamp dt:dt=""int"">0</Timestamp><DateUtc dt:dt=""string"">2022-06-23T16:43:59Z</DateUtc></StartTime><FrequencyChanges><FrequencyChange><Frequency dt:dt=""r8"">3020380</Frequency><Timestamp dt:dt=""r8"">275391879198</Timestamp><Current dt:dt=""r8"">0</Current><DateUtc dt:dt=""string"">2022-06-23T16:43:59Z</DateUtc></FrequencyChange></FrequencyChanges></Clock>\n"	000_R01_VA_allProc-132-1	60.001	1.0.0.229	1	514577090	Professional	2.0.10.356	2.0.10.356	06-23-2022	6/23/2022 4:43:59 PM	12:43:59	2.0.10.252	2	0	0	281073	23	281073	4000	-999999	444852	0	441071	0	Run3Proc	2	1	2	RunList	3	HighSmallED	8000	0	355072	0	355072	0	355072	0	B3HighSmallEDBlockProc	n/a	n/a	n/a	n/a	n/a	n/a	3.0	1.0	3.0	n/a	n/a	n/a	n/a	n/a	n/a	Run3BlockList	1	n/a	n/a	n/a	n/a	n/a	n/a	n/a	n/a	n/a	n/a	n/a	n/a	n/a	n/a	n/a	n/a	n/a	n/a	n/a	n/a	n/a	1.0	1.0	1.0	n/a	n/a	n/a	n/a	n/a	n/a	n/a	n/a	n/a	n/a	n/a	n/a	n/a	n/a	n/a	n/a	n/a	n/a	n/a	n/a	n/a	n/a	n/a	n/a	n/a	n/a	n/a	n/a	n/a	n/a	n/a	n/a	n/a	n/a	n/a	n/a	n/a	n/a	n/a	n/a	n/a	n/a	n/a	n/a	n/a	n/a	n/a	n/a	n/a	n/a	n/a	n/a	n/a	n/a	n/a	n/a	n/a	n/a	n/a	n/a	n/a	n/a	n/a	n/a	n/a	n/a	B3_01.jpg	500	0	339572	0	339572	0	TrialProc1	B3HighSmallEDBlockList	2500	0	337072	0	337072	0	337072	2500	c	2046	339118	55.999
59	2.5	000_R01_VA_allProc	132	1	"<?xml version=""1.0""?>\n<Clock xmlns:dt=""urn:schemas-microsoft-com:datatypes""><Description dt:dt=""string"">E-Prime Primary Realtime Clock</Description><StartTime><Timestamp dt:dt=""int"">0</Timestamp><DateUtc dt:dt=""string"">2022-06-23T16:43:59Z</DateUtc></StartTime><FrequencyChanges><FrequencyChange><Frequency dt:dt=""r8"">3020380</Frequency><Timestamp dt:dt=""r8"">275391879198</Timestamp><Current dt:dt=""r8"">0</Current><DateUtc dt:dt=""string"">2022-06-23T16:43:59Z</DateUtc></FrequencyChange></FrequencyChanges></Clock>\n"	000_R01_VA_allProc-132-1	60.001	1.0.0.229	1	514577090	Professional	2.0.10.356	2.0.10.356	06-23-2022	6/23/2022 4:43:59 PM	12:43:59	2.0.10.252	2	0	0	281073	23	281073	4000	-999999	444852	0	441071	0	Run3Proc	2	1	2	RunList	3	HighSmallED	8000	0	355072	0	355072	0	355072	0	B3HighSmallEDBlockProc	n/a	n/a	n/a	n/a	n/a	n/a	3.0	1.0	3.0	n/a	n/a	n/a	n/a	n/a	n/a	Run3BlockList	2	n/a	n/a	n/a	n/a	n/a	n/a	n/a	n/a	n/a	n/a	n/a	n/a	n/a	n/a	n/a	n/a	n/a	n/a	n/a	n/a	n/a	2.0	1.0	2.0	n/a	n/a	n/a	n/a	n/a	n/a	n/a	n/a	n/a	n/a	n/a	n/a	n/a	n/a	n/a	n/a	n/a	n/a	n/a	n/a	n/a	n/a	n/a	n/a	n/a	n/a	n/a	n/a	n/a	n/a	n/a	n/a	n/a	n/a	n/a	n/a	n/a	n/a	n/a	n/a	n/a	n/a	n/a	n/a	n/a	n/a	n/a	n/a	n/a	n/a	n/a	n/a	n/a	n/a	n/a	n/a	n/a	n/a	n/a	n/a	n/a	n/a	n/a	n/a	n/a	n/a	B3_02.jpg	500	0	342572	0	342572	0	TrialProc1	B3HighSmallEDBlockList	2500	0	340072	0	340072	0	340072	2500	d	1342	341414	58.999
62	2.5	000_R01_VA_allProc	132	1	"<?xml version=""1.0""?>\n<Clock xmlns:dt=""urn:schemas-microsoft-com:datatypes""><Description dt:dt=""string"">E-Prime Primary Realtime Clock</Description><StartTime><Timestamp dt:dt=""int"">0</Timestamp><DateUtc dt:dt=""string"">2022-06-23T16:43:59Z</DateUtc></StartTime><FrequencyChanges><FrequencyChange><Frequency dt:dt=""r8"">3020380</Frequency><Timestamp dt:dt=""r8"">275391879198</Timestamp><Current dt:dt=""r8"">0</Current><DateUtc dt:dt=""string"">2022-06-23T16:43:59Z</DateUtc></FrequencyChange></FrequencyChanges></Clock>\n"	000_R01_VA_allProc-132-1	60.001	1.0.0.229	1	514577090	Professional	2.0.10.356	2.0.10.356	06-23-2022	6/23/2022 4:43:59 PM	12:43:59	2.0.10.252	2	0	0	281073	23	281073	4000	-999999	444852	0	441071	0	Run3Proc	2	1	2	RunList	3	HighSmallED	8000	0	355072	0	355072	0	355072	0	B3HighSmallEDBlockProc	n/a	n/a	n/a	n/a	n/a	n/a	3.0	1.0	3.0	n/a	n/a	n/a	n/a	n/a	n/a	Run3BlockList	3	n/a	n/a	n/a	n/a	n/a	n/a	n/a	n/a	n/a	n/a	n/a	n/a	n/a	n/a	n/a	n/a	n/a	n/a	n/a	n/a	n/a	3.0	1.0	3.0	n/a	n/a	n/a	n/a	n/a	n/a	n/a	n/a	n/a	n/a	n/a	n/a	n/a	n/a	n/a	n/a	n/a	n/a	n/a	n/a	n/a	n/a	n/a	n/a	n/a	n/a	n/a	n/a	n/a	n/a	n/a	n/a	n/a	n/a	n/a	n/a	n/a	n/a	n/a	n/a	n/a	n/a	n/a	n/a	n/a	n/a	n/a	n/a	n/a	n/a	n/a	n/a	n/a	n/a	n/a	n/a	n/a	n/a	n/a	n/a	n/a	n/a	n/a	n/a	n/a	n/a	B3_03.jpg	500	0	345572	0	345572	0	TrialProc1	B3HighSmallEDBlockList	2500	0	343072	0	343072	0	343072	2500	c	1374	344446	61.999
65	2.5	000_R01_VA_allProc	132	1	"<?xml version=""1.0""?>\n<Clock xmlns:dt=""urn:schemas-microsoft-com:datatypes""><Description dt:dt=""string"">E-Prime Primary Realtime Clock</Description><StartTime><Timestamp dt:dt=""int"">0</Timestamp><DateUtc dt:dt=""string"">2022-06-23T16:43:59Z</DateUtc></StartTime><FrequencyChanges><FrequencyChange><Frequency dt:dt=""r8"">3020380</Frequency><Timestamp dt:dt=""r8"">275391879198</Timestamp><Current dt:dt=""r8"">0</Current><DateUtc dt:dt=""string"">2022-06-23T16:43:59Z</DateUtc></FrequencyChange></FrequencyChanges></Clock>\n"	000_R01_VA_allProc-132-1	60.001	1.0.0.229	1	514577090	Professional	2.0.10.356	2.0.10.356	06-23-2022	6/23/2022 4:43:59 PM	12:43:59	2.0.10.252	2	0	0	281073	23	281073	4000	-999999	444852	0	441071	0	Run3Proc	2	1	2	RunList	3	HighSmallED	8000	0	355072	0	355072	0	355072	0	B3HighSmallEDBlockProc	n/a	n/a	n/a	n/a	n/a	n/a	3.0	1.0	3.0	n/a	n/a	n/a	n/a	n/a	n/a	Run3BlockList	4	n/a	n/a	n/a	n/a	n/a	n/a	n/a	n/a	n/a	n/a	n/a	n/a	n/a	n/a	n/a	n/a	n/a	n/a	n/a	n/a	n/a	4.0	1.0	4.0	n/a	n/a	n/a	n/a	n/a	n/a	n/a	n/a	n/a	n/a	n/a	n/a	n/a	n/a	n/a	n/a	n/a	n/a	n/a	n/a	n/a	n/a	n/a	n/a	n/a	n/a	n/a	n/a	n/a	n/a	n/a	n/a	n/a	n/a	n/a	n/a	n/a	n/a	n/a	n/a	n/a	n/a	n/a	n/a	n/a	n/a	n/a	n/a	n/a	n/a	n/a	n/a	n/a	n/a	n/a	n/a	n/a	n/a	n/a	n/a	n/a	n/a	n/a	n/a	n/a	n/a	B3_04.jpg	500	0	348572	0	348572	0	TrialProc1	B3HighSmallEDBlockList	2500	0	346072	0	346072	0	346072	2500	d	1358	347430	64.999
68	2.5	000_R01_VA_allProc	132	1	"<?xml version=""1.0""?>\n<Clock xmlns:dt=""urn:schemas-microsoft-com:datatypes""><Description dt:dt=""string"">E-Prime Primary Realtime Clock</Description><StartTime><Timestamp dt:dt=""int"">0</Timestamp><DateUtc dt:dt=""string"">2022-06-23T16:43:59Z</DateUtc></StartTime><FrequencyChanges><FrequencyChange><Frequency dt:dt=""r8"">3020380</Frequency><Timestamp dt:dt=""r8"">275391879198</Timestamp><Current dt:dt=""r8"">0</Current><DateUtc dt:dt=""string"">2022-06-23T16:43:59Z</DateUtc></FrequencyChange></FrequencyChanges></Clock>\n"	000_R01_VA_allProc-132-1	60.001	1.0.0.229	1	514577090	Professional	2.0.10.356	2.0.10.356	06-23-2022	6/23/2022 4:43:59 PM	12:43:59	2.0.10.252	2	0	0	281073	23	281073	4000	-999999	444852	0	441071	0	Run3Proc	2	1	2	RunList	3	HighSmallED	8000	0	355072	0	355072	0	355072	0	B3HighSmallEDBlockProc	n/a	n/a	n/a	n/a	n/a	n/a	3.0	1.0	3.0	n/a	n/a	n/a	n/a	n/a	n/a	Run3BlockList	5	n/a	n/a	n/a	n/a	n/a	n/a	n/a	n/a	n/a	n/a	n/a	n/a	n/a	n/a	n/a	n/a	n/a	n/a	n/a	n/a	n/a	5.0	1.0	5.0	n/a	n/a	n/a	n/a	n/a	n/a	n/a	n/a	n/a	n/a	n/a	n/a	n/a	n/a	n/a	n/a	n/a	n/a	n/a	n/a	n/a	n/a	n/a	n/a	n/a	n/a	n/a	n/a	n/a	n/a	n/a	n/a	n/a	n/a	n/a	n/a	n/a	n/a	n/a	n/a	n/a	n/a	n/a	n/a	n/a	n/a	n/a	n/a	n/a	n/a	n/a	n/a	n/a	n/a	n/a	n/a	n/a	n/a	n/a	n/a	n/a	n/a	n/a	n/a	n/a	n/a	B3_05.jpg	500	0	351572	0	351572	0	TrialProc1	B3HighSmallEDBlockList	2500	0	349072	0	349072	0	349072	2500	d	1246	350318	67.999
71	2.5	000_R01_VA_allProc	132	1	"<?xml version=""1.0""?>\n<Clock xmlns:dt=""urn:schemas-microsoft-com:datatypes""><Description dt:dt=""string"">E-Prime Primary Realtime Clock</Description><StartTime><Timestamp dt:dt=""int"">0</Timestamp><DateUtc dt:dt=""string"">2022-06-23T16:43:59Z</DateUtc></StartTime><FrequencyChanges><FrequencyChange><Frequency dt:dt=""r8"">3020380</Frequency><Timestamp dt:dt=""r8"">275391879198</Timestamp><Current dt:dt=""r8"">0</Current><DateUtc dt:dt=""string"">2022-06-23T16:43:59Z</DateUtc></FrequencyChange></FrequencyChanges></Clock>\n"	000_R01_VA_allProc-132-1	60.001	1.0.0.229	1	514577090	Professional	2.0.10.356	2.0.10.356	06-23-2022	6/23/2022 4:43:59 PM	12:43:59	2.0.10.252	2	0	0	281073	23	281073	4000	-999999	444852	0	441071	0	Run3Proc	2	1	2	RunList	3	HighSmallED	8000	0	355072	0	355072	0	355072	0	B3HighSmallEDBlockProc	n/a	n/a	n/a	n/a	n/a	n/a	3.0	1.0	3.0	n/a	n/a	n/a	n/a	n/a	n/a	Run3BlockList	6	n/a	n/a	n/a	n/a	n/a	n/a	n/a	n/a	n/a	n/a	n/a	n/a	n/a	n/a	n/a	n/a	n/a	n/a	n/a	n/a	n/a	6.0	1.0	6.0	n/a	n/a	n/a	n/a	n/a	n/a	n/a	n/a	n/a	n/a	n/a	n/a	n/a	n/a	n/a	n/a	n/a	n/a	n/a	n/a	n/a	n/a	n/a	n/a	n/a	n/a	n/a	n/a	n/a	n/a	n/a	n/a	n/a	n/a	n/a	n/a	n/a	n/a	n/a	n/a	n/a	n/a	n/a	n/a	n/a	n/a	n/a	n/a	n/a	n/a	n/a	n/a	n/a	n/a	n/a	n/a	n/a	n/a	n/a	n/a	n/a	n/a	n/a	n/a	n/a	n/a	B3_06.jpg	500	0	354572	0	354572	0	TrialProc1	B3HighSmallEDBlockList	2500	0	352072	0	352072	0	352072	2500	c	1054	353126	70.999
82	2.5	000_R01_VA_allProc	132	1	"<?xml version=""1.0""?>\n<Clock xmlns:dt=""urn:schemas-microsoft-com:datatypes""><Description dt:dt=""string"">E-Prime Primary Realtime Clock</Description><StartTime><Timestamp dt:dt=""int"">0</Timestamp><DateUtc dt:dt=""string"">2022-06-23T16:43:59Z</DateUtc></StartTime><FrequencyChanges><FrequencyChange><Frequency dt:dt=""r8"">3020380</Frequency><Timestamp dt:dt=""r8"">275391879198</Timestamp><Current dt:dt=""r8"">0</Current><DateUtc dt:dt=""string"">2022-06-23T16:43:59Z</DateUtc></FrequencyChange></FrequencyChanges></Clock>\n"	000_R01_VA_allProc-132-1	60.001	1.0.0.229	1	514577090	Professional	2.0.10.356	2.0.10.356	06-23-2022	6/23/2022 4:43:59 PM	12:43:59	2.0.10.252	2	0	0	281073	23	281073	4000	-999999	444852	0	441071	0	Run3Proc	2	1	2	RunList	4	OfficeSmall	8000	0	381072	0	381072	0	381072	0	F3OfficeSmallBlockProc	n/a	n/a	n/a	n/a	n/a	n/a	4.0	1.0	4.0	n/a	n/a	n/a	n/a	n/a	n/a	Run3BlockList	1	n/a	n/a	n/a	n/a	n/a	n/a	n/a	n/a	n/a	n/a	n/a	n/a	n/a	n/a	n/a	n/a	n/a	n/a	n/a	n/a	n/a	n/a	n/a	n/a	n/a	n/a	n/a	n/a	n/a	n/a	n/a	n/a	n/a	n/a	n/a	n/a	n/a	n/a	n/a	n/a	n/a	n/a	n/a	n/a	n/a	n/a	n/a	n/a	n/a	n/a	n/a	n/a	n/a	n/a	n/a	n/a	n/a	n/a	n/a	n/a	n/a	n/a	n/a	n/a	n/a	n/a	n/a	n/a	n/a	n/a	n/a	n/a	n/a	n/a	n/a	n/a	n/a	n/a	n/a	n/a	n/a	1.0	1.0	1.0	n/a	n/a	n/a	n/a	n/a	n/a	F3_01.jpg	500	0	365572	0	365572	0	TrialProc1	F3OfficeSmallBlockList	2500	0	363072	0	363072	0	363072	2500	d	1094	364166	81.999
85	2.5	000_R01_VA_allProc	132	1	"<?xml version=""1.0""?>\n<Clock xmlns:dt=""urn:schemas-microsoft-com:datatypes""><Description dt:dt=""string"">E-Prime Primary Realtime Clock</Description><StartTime><Timestamp dt:dt=""int"">0</Timestamp><DateUtc dt:dt=""string"">2022-06-23T16:43:59Z</DateUtc></StartTime><FrequencyChanges><FrequencyChange><Frequency dt:dt=""r8"">3020380</Frequency><Timestamp dt:dt=""r8"">275391879198</Timestamp><Current dt:dt=""r8"">0</Current><DateUtc dt:dt=""string"">2022-06-23T16:43:59Z</DateUtc></FrequencyChange></FrequencyChanges></Clock>\n"	000_R01_VA_allProc-132-1	60.001	1.0.0.229	1	514577090	Professional	2.0.10.356	2.0.10.356	06-23-2022	6/23/2022 4:43:59 PM	12:43:59	2.0.10.252	2	0	0	281073	23	281073	4000	-999999	444852	0	441071	0	Run3Proc	2	1	2	RunList	4	OfficeSmall	8000	0	381072	0	381072	0	381072	0	F3OfficeSmallBlockProc	n/a	n/a	n/a	n/a	n/a	n/a	4.0	1.0	4.0	n/a	n/a	n/a	n/a	n/a	n/a	Run3BlockList	2	n/a	n/a	n/a	n/a	n/a	n/a	n/a	n/a	n/a	n/a	n/a	n/a	n/a	n/a	n/a	n/a	n/a	n/a	n/a	n/a	n/a	n/a	n/a	n/a	n/a	n/a	n/a	n/a	n/a	n/a	n/a	n/a	n/a	n/a	n/a	n/a	n/a	n/a	n/a	n/a	n/a	n/a	n/a	n/a	n/a	n/a	n/a	n/a	n/a	n/a	n/a	n/a	n/a	n/a	n/a	n/a	n/a	n/a	n/a	n/a	n/a	n/a	n/a	n/a	n/a	n/a	n/a	n/a	n/a	n/a	n/a	n/a	n/a	n/a	n/a	n/a	n/a	n/a	n/a	n/a	n/a	2.0	1.0	2.0	n/a	n/a	n/a	n/a	n/a	n/a	F3_02.jpg	500	0	368572	0	368572	0	TrialProc1	F3OfficeSmallBlockList	2500	0	366072	0	366072	0	366072	2500	d	1238	367310	84.999
88	2.5	000_R01_VA_allProc	132	1	"<?xml version=""1.0""?>\n<Clock xmlns:dt=""urn:schemas-microsoft-com:datatypes""><Description dt:dt=""string"">E-Prime Primary Realtime Clock</Description><StartTime><Timestamp dt:dt=""int"">0</Timestamp><DateUtc dt:dt=""string"">2022-06-23T16:43:59Z</DateUtc></StartTime><FrequencyChanges><FrequencyChange><Frequency dt:dt=""r8"">3020380</Frequency><Timestamp dt:dt=""r8"">275391879198</Timestamp><Current dt:dt=""r8"">0</Current><DateUtc dt:dt=""string"">2022-06-23T16:43:59Z</DateUtc></FrequencyChange></FrequencyChanges></Clock>\n"	000_R01_VA_allProc-132-1	60.001	1.0.0.229	1	514577090	Professional	2.0.10.356	2.0.10.356	06-23-2022	6/23/2022 4:43:59 PM	12:43:59	2.0.10.252	2	0	0	281073	23	281073	4000	-999999	444852	0	441071	0	Run3Proc	2	1	2	RunList	4	OfficeSmall	8000	0	381072	0	381072	0	381072	0	F3OfficeSmallBlockProc	n/a	n/a	n/a	n/a	n/a	n/a	4.0	1.0	4.0	n/a	n/a	n/a	n/a	n/a	n/a	Run3BlockList	3	n/a	n/a	n/a	n/a	n/a	n/a	n/a	n/a	n/a	n/a	n/a	n/a	n/a	n/a	n/a	n/a	n/a	n/a	n/a	n/a	n/a	n/a	n/a	n/a	n/a	n/a	n/a	n/a	n/a	n/a	n/a	n/a	n/a	n/a	n/a	n/a	n/a	n/a	n/a	n/a	n/a	n/a	n/a	n/a	n/a	n/a	n/a	n/a	n/a	n/a	n/a	n/a	n/a	n/a	n/a	n/a	n/a	n/a	n/a	n/a	n/a	n/a	n/a	n/a	n/a	n/a	n/a	n/a	n/a	n/a	n/a	n/a	n/a	n/a	n/a	n/a	n/a	n/a	n/a	n/a	n/a	3.0	1.0	3.0	n/a	n/a	n/a	n/a	n/a	n/a	F3_03.jpg	500	0	371572	0	371572	0	TrialProc1	F3OfficeSmallBlockList	2500	0	369072	0	369072	0	369072	2500	d	1254	370326	87.999
91	2.5	000_R01_VA_allProc	132	1	"<?xml version=""1.0""?>\n<Clock xmlns:dt=""urn:schemas-microsoft-com:datatypes""><Description dt:dt=""string"">E-Prime Primary Realtime Clock</Description><StartTime><Timestamp dt:dt=""int"">0</Timestamp><DateUtc dt:dt=""string"">2022-06-23T16:43:59Z</DateUtc></StartTime><FrequencyChanges><FrequencyChange><Frequency dt:dt=""r8"">3020380</Frequency><Timestamp dt:dt=""r8"">275391879198</Timestamp><Current dt:dt=""r8"">0</Current><DateUtc dt:dt=""string"">2022-06-23T16:43:59Z</DateUtc></FrequencyChange></FrequencyChanges></Clock>\n"	000_R01_VA_allProc-132-1	60.001	1.0.0.229	1	514577090	Professional	2.0.10.356	2.0.10.356	06-23-2022	6/23/2022 4:43:59 PM	12:43:59	2.0.10.252	2	0	0	281073	23	281073	4000	-999999	444852	0	441071	0	Run3Proc	2	1	2	RunList	4	OfficeSmall	8000	0	381072	0	381072	0	381072	0	F3OfficeSmallBlockProc	n/a	n/a	n/a	n/a	n/a	n/a	4.0	1.0	4.0	n/a	n/a	n/a	n/a	n/a	n/a	Run3BlockList	4	n/a	n/a	n/a	n/a	n/a	n/a	n/a	n/a	n/a	n/a	n/a	n/a	n/a	n/a	n/a	n/a	n/a	n/a	n/a	n/a	n/a	n/a	n/a	n/a	n/a	n/a	n/a	n/a	n/a	n/a	n/a	n/a	n/a	n/a	n/a	n/a	n/a	n/a	n/a	n/a	n/a	n/a	n/a	n/a	n/a	n/a	n/a	n/a	n/a	n/a	n/a	n/a	n/a	n/a	n/a	n/a	n/a	n/a	n/a	n/a	n/a	n/a	n/a	n/a	n/a	n/a	n/a	n/a	n/a	n/a	n/a	n/a	n/a	n/a	n/a	n/a	n/a	n/a	n/a	n/a	n/a	4.0	1.0	4.0	n/a	n/a	n/a	n/a	n/a	n/a	F3_04.jpg	500	0	374572	0	374572	0	TrialProc1	F3OfficeSmallBlockList	2500	0	372072	0	372072	0	372072	2500	d	1694	373766	90.999
94	2.5	000_R01_VA_allProc	132	1	"<?xml version=""1.0""?>\n<Clock xmlns:dt=""urn:schemas-microsoft-com:datatypes""><Description dt:dt=""string"">E-Prime Primary Realtime Clock</Description><StartTime><Timestamp dt:dt=""int"">0</Timestamp><DateUtc dt:dt=""string"">2022-06-23T16:43:59Z</DateUtc></StartTime><FrequencyChanges><FrequencyChange><Frequency dt:dt=""r8"">3020380</Frequency><Timestamp dt:dt=""r8"">275391879198</Timestamp><Current dt:dt=""r8"">0</Current><DateUtc dt:dt=""string"">2022-06-23T16:43:59Z</DateUtc></FrequencyChange></FrequencyChanges></Clock>\n"	000_R01_VA_allProc-132-1	60.001	1.0.0.229	1	514577090	Professional	2.0.10.356	2.0.10.356	06-23-2022	6/23/2022 4:43:59 PM	12:43:59	2.0.10.252	2	0	0	281073	23	281073	4000	-999999	444852	0	441071	0	Run3Proc	2	1	2	RunList	4	OfficeSmall	8000	0	381072	0	381072	0	381072	0	F3OfficeSmallBlockProc	n/a	n/a	n/a	n/a	n/a	n/a	4.0	1.0	4.0	n/a	n/a	n/a	n/a	n/a	n/a	Run3BlockList	5	n/a	n/a	n/a	n/a	n/a	n/a	n/a	n/a	n/a	n/a	n/a	n/a	n/a	n/a	n/a	n/a	n/a	n/a	n/a	n/a	n/a	n/a	n/a	n/a	n/a	n/a	n/a	n/a	n/a	n/a	n/a	n/a	n/a	n/a	n/a	n/a	n/a	n/a	n/a	n/a	n/a	n/a	n/a	n/a	n/a	n/a	n/a	n/a	n/a	n/a	n/a	n/a	n/a	n/a	n/a	n/a	n/a	n/a	n/a	n/a	n/a	n/a	n/a	n/a	n/a	n/a	n/a	n/a	n/a	n/a	n/a	n/a	n/a	n/a	n/a	n/a	n/a	n/a	n/a	n/a	n/a	5.0	1.0	5.0	n/a	n/a	n/a	n/a	n/a	n/a	F3_05.jpg	500	0	377572	0	377572	0	TrialProc1	F3OfficeSmallBlockList	2500	0	375072	0	375072	0	375072	2500	d	1814	376886	93.999
97	2.5	000_R01_VA_allProc	132	1	"<?xml version=""1.0""?>\n<Clock xmlns:dt=""urn:schemas-microsoft-com:datatypes""><Description dt:dt=""string"">E-Prime Primary Realtime Clock</Description><StartTime><Timestamp dt:dt=""int"">0</Timestamp><DateUtc dt:dt=""string"">2022-06-23T16:43:59Z</DateUtc></StartTime><FrequencyChanges><FrequencyChange><Frequency dt:dt=""r8"">3020380</Frequency><Timestamp dt:dt=""r8"">275391879198</Timestamp><Current dt:dt=""r8"">0</Current><DateUtc dt:dt=""string"">2022-06-23T16:43:59Z</DateUtc></FrequencyChange></FrequencyChanges></Clock>\n"	000_R01_VA_allProc-132-1	60.001	1.0.0.229	1	514577090	Professional	2.0.10.356	2.0.10.356	06-23-2022	6/23/2022 4:43:59 PM	12:43:59	2.0.10.252	2	0	0	281073	23	281073	4000	-999999	444852	0	441071	0	Run3Proc	2	1	2	RunList	4	OfficeSmall	8000	0	381072	0	381072	0	381072	0	F3OfficeSmallBlockProc	n/a	n/a	n/a	n/a	n/a	n/a	4.0	1.0	4.0	n/a	n/a	n/a	n/a	n/a	n/a	Run3BlockList	6	n/a	n/a	n/a	n/a	n/a	n/a	n/a	n/a	n/a	n/a	n/a	n/a	n/a	n/a	n/a	n/a	n/a	n/a	n/a	n/a	n/a	n/a	n/a	n/a	n/a	n/a	n/a	n/a	n/a	n/a	n/a	n/a	n/a	n/a	n/a	n/a	n/a	n/a	n/a	n/a	n/a	n/a	n/a	n/a	n/a	n/a	n/a	n/a	n/a	n/a	n/a	n/a	n/a	n/a	n/a	n/a	n/a	n/a	n/a	n/a	n/a	n/a	n/a	n/a	n/a	n/a	n/a	n/a	n/a	n/a	n/a	n/a	n/a	n/a	n/a	n/a	n/a	n/a	n/a	n/a	n/a	6.0	1.0	6.0	n/a	n/a	n/a	n/a	n/a	n/a	F3_06.jpg	500	0	380572	0	380572	0	TrialProc1	F3OfficeSmallBlockList	2500	0	378072	0	378072	0	378072	2500	c	1470	379542	96.999
108	2.5	000_R01_VA_allProc	132	1	"<?xml version=""1.0""?>\n<Clock xmlns:dt=""urn:schemas-microsoft-com:datatypes""><Description dt:dt=""string"">E-Prime Primary Realtime Clock</Description><StartTime><Timestamp dt:dt=""int"">0</Timestamp><DateUtc dt:dt=""string"">2022-06-23T16:43:59Z</DateUtc></StartTime><FrequencyChanges><FrequencyChange><Frequency dt:dt=""r8"">3020380</Frequency><Timestamp dt:dt=""r8"">275391879198</Timestamp><Current dt:dt=""r8"">0</Current><DateUtc dt:dt=""string"">2022-06-23T16:43:59Z</DateUtc></FrequencyChange></FrequencyChanges></Clock>\n"	000_R01_VA_allProc-132-1	60.001	1.0.0.229	1	514577090	Professional	2.0.10.356	2.0.10.356	06-23-2022	6/23/2022 4:43:59 PM	12:43:59	2.0.10.252	2	0	0	281073	23	281073	4000	-999999	444852	0	441071	0	Run3Proc	2	1	2	RunList	5	HighLargeED	8000	0	407071	0	407071	0	407071	0	A3HighLargeEDBlockProc	n/a	n/a	n/a	n/a	n/a	n/a	5.0	1.0	5.0	n/a	n/a	n/a	n/a	n/a	n/a	Run3BlockList	1	n/a	n/a	n/a	n/a	n/a	n/a	1.0	1.0	1.0	n/a	n/a	n/a	n/a	n/a	n/a	n/a	n/a	n/a	n/a	n/a	n/a	n/a	n/a	n/a	n/a	n/a	n/a	n/a	n/a	n/a	n/a	n/a	n/a	n/a	n/a	n/a	n/a	n/a	n/a	n/a	n/a	n/a	n/a	n/a	n/a	n/a	n/a	n/a	n/a	n/a	n/a	n/a	n/a	n/a	n/a	n/a	n/a	n/a	n/a	n/a	n/a	n/a	n/a	n/a	n/a	n/a	n/a	n/a	n/a	n/a	n/a	n/a	n/a	n/a	n/a	n/a	n/a	n/a	n/a	n/a	n/a	n/a	n/a	n/a	n/a	n/a	n/a	n/a	n/a	n/a	A3_01.jpg	500	0	391572	0	391572	0	TrialProc1	A3HighLargeEDBlockList	2500	0	389072	0	389072	0	389072	2500	d	1558	390630	107.999
111	2.5	000_R01_VA_allProc	132	1	"<?xml version=""1.0""?>\n<Clock xmlns:dt=""urn:schemas-microsoft-com:datatypes""><Description dt:dt=""string"">E-Prime Primary Realtime Clock</Description><StartTime><Timestamp dt:dt=""int"">0</Timestamp><DateUtc dt:dt=""string"">2022-06-23T16:43:59Z</DateUtc></StartTime><FrequencyChanges><FrequencyChange><Frequency dt:dt=""r8"">3020380</Frequency><Timestamp dt:dt=""r8"">275391879198</Timestamp><Current dt:dt=""r8"">0</Current><DateUtc dt:dt=""string"">2022-06-23T16:43:59Z</DateUtc></FrequencyChange></FrequencyChanges></Clock>\n"	000_R01_VA_allProc-132-1	60.001	1.0.0.229	1	514577090	Professional	2.0.10.356	2.0.10.356	06-23-2022	6/23/2022 4:43:59 PM	12:43:59	2.0.10.252	2	0	0	281073	23	281073	4000	-999999	444852	0	441071	0	Run3Proc	2	1	2	RunList	5	HighLargeED	8000	0	407071	0	407071	0	407071	0	A3HighLargeEDBlockProc	n/a	n/a	n/a	n/a	n/a	n/a	5.0	1.0	5.0	n/a	n/a	n/a	n/a	n/a	n/a	Run3BlockList	2	n/a	n/a	n/a	n/a	n/a	n/a	2.0	1.0	2.0	n/a	n/a	n/a	n/a	n/a	n/a	n/a	n/a	n/a	n/a	n/a	n/a	n/a	n/a	n/a	n/a	n/a	n/a	n/a	n/a	n/a	n/a	n/a	n/a	n/a	n/a	n/a	n/a	n/a	n/a	n/a	n/a	n/a	n/a	n/a	n/a	n/a	n/a	n/a	n/a	n/a	n/a	n/a	n/a	n/a	n/a	n/a	n/a	n/a	n/a	n/a	n/a	n/a	n/a	n/a	n/a	n/a	n/a	n/a	n/a	n/a	n/a	n/a	n/a	n/a	n/a	n/a	n/a	n/a	n/a	n/a	n/a	n/a	n/a	n/a	n/a	n/a	n/a	n/a	n/a	n/a	A3_02.jpg	500	0	394572	0	394572	0	TrialProc1	A3HighLargeEDBlockList	2500	0	392072	0	392072	0	392072	2500	d	1446	393518	110.999
114	2.5	000_R01_VA_allProc	132	1	"<?xml version=""1.0""?>\n<Clock xmlns:dt=""urn:schemas-microsoft-com:datatypes""><Description dt:dt=""string"">E-Prime Primary Realtime Clock</Description><StartTime><Timestamp dt:dt=""int"">0</Timestamp><DateUtc dt:dt=""string"">2022-06-23T16:43:59Z</DateUtc></StartTime><FrequencyChanges><FrequencyChange><Frequency dt:dt=""r8"">3020380</Frequency><Timestamp dt:dt=""r8"">275391879198</Timestamp><Current dt:dt=""r8"">0</Current><DateUtc dt:dt=""string"">2022-06-23T16:43:59Z</DateUtc></FrequencyChange></FrequencyChanges></Clock>\n"	000_R01_VA_allProc-132-1	60.001	1.0.0.229	1	514577090	Professional	2.0.10.356	2.0.10.356	06-23-2022	6/23/2022 4:43:59 PM	12:43:59	2.0.10.252	2	0	0	281073	23	281073	4000	-999999	444852	0	441071	0	Run3Proc	2	1	2	RunList	5	HighLargeED	8000	0	407071	0	407071	0	407071	0	A3HighLargeEDBlockProc	n/a	n/a	n/a	n/a	n/a	n/a	5.0	1.0	5.0	n/a	n/a	n/a	n/a	n/a	n/a	Run3BlockList	3	n/a	n/a	n/a	n/a	n/a	n/a	3.0	1.0	3.0	n/a	n/a	n/a	n/a	n/a	n/a	n/a	n/a	n/a	n/a	n/a	n/a	n/a	n/a	n/a	n/a	n/a	n/a	n/a	n/a	n/a	n/a	n/a	n/a	n/a	n/a	n/a	n/a	n/a	n/a	n/a	n/a	n/a	n/a	n/a	n/a	n/a	n/a	n/a	n/a	n/a	n/a	n/a	n/a	n/a	n/a	n/a	n/a	n/a	n/a	n/a	n/a	n/a	n/a	n/a	n/a	n/a	n/a	n/a	n/a	n/a	n/a	n/a	n/a	n/a	n/a	n/a	n/a	n/a	n/a	n/a	n/a	n/a	n/a	n/a	n/a	n/a	n/a	n/a	n/a	n/a	A3_03.jpg	500	0	397572	0	397572	0	TrialProc1	A3HighLargeEDBlockList	2500	0	395072	0	395072	0	395072	2500	d	1518	396590	113.999
117	2.5	000_R01_VA_allProc	132	1	"<?xml version=""1.0""?>\n<Clock xmlns:dt=""urn:schemas-microsoft-com:datatypes""><Description dt:dt=""string"">E-Prime Primary Realtime Clock</Description><StartTime><Timestamp dt:dt=""int"">0</Timestamp><DateUtc dt:dt=""string"">2022-06-23T16:43:59Z</DateUtc></StartTime><FrequencyChanges><FrequencyChange><Frequency dt:dt=""r8"">3020380</Frequency><Timestamp dt:dt=""r8"">275391879198</Timestamp><Current dt:dt=""r8"">0</Current><DateUtc dt:dt=""string"">2022-06-23T16:43:59Z</DateUtc></FrequencyChange></FrequencyChanges></Clock>\n"	000_R01_VA_allProc-132-1	60.001	1.0.0.229	1	514577090	Professional	2.0.10.356	2.0.10.356	06-23-2022	6/23/2022 4:43:59 PM	12:43:59	2.0.10.252	2	0	0	281073	23	281073	4000	-999999	444852	0	441071	0	Run3Proc	2	1	2	RunList	5	HighLargeED	8000	0	407071	0	407071	0	407071	0	A3HighLargeEDBlockProc	n/a	n/a	n/a	n/a	n/a	n/a	5.0	1.0	5.0	n/a	n/a	n/a	n/a	n/a	n/a	Run3BlockList	4	n/a	n/a	n/a	n/a	n/a	n/a	4.0	1.0	4.0	n/a	n/a	n/a	n/a	n/a	n/a	n/a	n/a	n/a	n/a	n/a	n/a	n/a	n/a	n/a	n/a	n/a	n/a	n/a	n/a	n/a	n/a	n/a	n/a	n/a	n/a	n/a	n/a	n/a	n/a	n/a	n/a	n/a	n/a	n/a	n/a	n/a	n/a	n/a	n/a	n/a	n/a	n/a	n/a	n/a	n/a	n/a	n/a	n/a	n/a	n/a	n/a	n/a	n/a	n/a	n/a	n/a	n/a	n/a	n/a	n/a	n/a	n/a	n/a	n/a	n/a	n/a	n/a	n/a	n/a	n/a	n/a	n/a	n/a	n/a	n/a	n/a	n/a	n/a	n/a	n/a	A3_04.jpg	500	1	400572	0	400571	0	TrialProc1	A3HighLargeEDBlockList	2500	1	398072	1	398072	-1	398071	2500	d	1247	399318	116.998
120	2.5	000_R01_VA_allProc	132	1	"<?xml version=""1.0""?>\n<Clock xmlns:dt=""urn:schemas-microsoft-com:datatypes""><Description dt:dt=""string"">E-Prime Primary Realtime Clock</Description><StartTime><Timestamp dt:dt=""int"">0</Timestamp><DateUtc dt:dt=""string"">2022-06-23T16:43:59Z</DateUtc></StartTime><FrequencyChanges><FrequencyChange><Frequency dt:dt=""r8"">3020380</Frequency><Timestamp dt:dt=""r8"">275391879198</Timestamp><Current dt:dt=""r8"">0</Current><DateUtc dt:dt=""string"">2022-06-23T16:43:59Z</DateUtc></FrequencyChange></FrequencyChanges></Clock>\n"	000_R01_VA_allProc-132-1	60.001	1.0.0.229	1	514577090	Professional	2.0.10.356	2.0.10.356	06-23-2022	6/23/2022 4:43:59 PM	12:43:59	2.0.10.252	2	0	0	281073	23	281073	4000	-999999	444852	0	441071	0	Run3Proc	2	1	2	RunList	5	HighLargeED	8000	0	407071	0	407071	0	407071	0	A3HighLargeEDBlockProc	n/a	n/a	n/a	n/a	n/a	n/a	5.0	1.0	5.0	n/a	n/a	n/a	n/a	n/a	n/a	Run3BlockList	5	n/a	n/a	n/a	n/a	n/a	n/a	5.0	1.0	5.0	n/a	n/a	n/a	n/a	n/a	n/a	n/a	n/a	n/a	n/a	n/a	n/a	n/a	n/a	n/a	n/a	n/a	n/a	n/a	n/a	n/a	n/a	n/a	n/a	n/a	n/a	n/a	n/a	n/a	n/a	n/a	n/a	n/a	n/a	n/a	n/a	n/a	n/a	n/a	n/a	n/a	n/a	n/a	n/a	n/a	n/a	n/a	n/a	n/a	n/a	n/a	n/a	n/a	n/a	n/a	n/a	n/a	n/a	n/a	n/a	n/a	n/a	n/a	n/a	n/a	n/a	n/a	n/a	n/a	n/a	n/a	n/a	n/a	n/a	n/a	n/a	n/a	n/a	n/a	n/a	n/a	A3_05.jpg	500	0	403572	0	403571	0	TrialProc1	A3HighLargeEDBlockList	2500	1	401072	1	401072	0	401071	2500	d	1327	402398	119.998
123	2.5	000_R01_VA_allProc	132	1	"<?xml version=""1.0""?>\n<Clock xmlns:dt=""urn:schemas-microsoft-com:datatypes""><Description dt:dt=""string"">E-Prime Primary Realtime Clock</Description><StartTime><Timestamp dt:dt=""int"">0</Timestamp><DateUtc dt:dt=""string"">2022-06-23T16:43:59Z</DateUtc></StartTime><FrequencyChanges><FrequencyChange><Frequency dt:dt=""r8"">3020380</Frequency><Timestamp dt:dt=""r8"">275391879198</Timestamp><Current dt:dt=""r8"">0</Current><DateUtc dt:dt=""string"">2022-06-23T16:43:59Z</DateUtc></FrequencyChange></FrequencyChanges></Clock>\n"	000_R01_VA_allProc-132-1	60.001	1.0.0.229	1	514577090	Professional	2.0.10.356	2.0.10.356	06-23-2022	6/23/2022 4:43:59 PM	12:43:59	2.0.10.252	2	0	0	281073	23	281073	4000	-999999	444852	0	441071	0	Run3Proc	2	1	2	RunList	5	HighLargeED	8000	0	407071	0	407071	0	407071	0	A3HighLargeEDBlockProc	n/a	n/a	n/a	n/a	n/a	n/a	5.0	1.0	5.0	n/a	n/a	n/a	n/a	n/a	n/a	Run3BlockList	6	n/a	n/a	n/a	n/a	n/a	n/a	6.0	1.0	6.0	n/a	n/a	n/a	n/a	n/a	n/a	n/a	n/a	n/a	n/a	n/a	n/a	n/a	n/a	n/a	n/a	n/a	n/a	n/a	n/a	n/a	n/a	n/a	n/a	n/a	n/a	n/a	n/a	n/a	n/a	n/a	n/a	n/a	n/a	n/a	n/a	n/a	n/a	n/a	n/a	n/a	n/a	n/a	n/a	n/a	n/a	n/a	n/a	n/a	n/a	n/a	n/a	n/a	n/a	n/a	n/a	n/a	n/a	n/a	n/a	n/a	n/a	n/a	n/a	n/a	n/a	n/a	n/a	n/a	n/a	n/a	n/a	n/a	n/a	n/a	n/a	n/a	n/a	n/a	n/a	n/a	A3_06.jpg	500	0	406571	0	406571	0	TrialProc1	A3HighLargeEDBlockList	2500	0	404072	0	404071	0	404071	2500	d	1063	405134	122.998
134	2.5	000_R01_VA_allProc	132	1	"<?xml version=""1.0""?>\n<Clock xmlns:dt=""urn:schemas-microsoft-com:datatypes""><Description dt:dt=""string"">E-Prime Primary Realtime Clock</Description><StartTime><Timestamp dt:dt=""int"">0</Timestamp><DateUtc dt:dt=""string"">2022-06-23T16:43:59Z</DateUtc></StartTime><FrequencyChanges><FrequencyChange><Frequency dt:dt=""r8"">3020380</Frequency><Timestamp dt:dt=""r8"">275391879198</Timestamp><Current dt:dt=""r8"">0</Current><DateUtc dt:dt=""string"">2022-06-23T16:43:59Z</DateUtc></FrequencyChange></FrequencyChanges></Clock>\n"	000_R01_VA_allProc-132-1	60.001	1.0.0.229	1	514577090	Professional	2.0.10.356	2.0.10.356	06-23-2022	6/23/2022 4:43:59 PM	12:43:59	2.0.10.252	2	0	0	281073	23	281073	4000	-999999	444852	0	441071	0	Run3Proc	2	1	2	RunList	6	LowLargeED	8000	0	433071	0	433071	0	433071	0	C3LowLargeEDBlockProc	n/a	n/a	n/a	n/a	n/a	n/a	6.0	1.0	6.0	n/a	n/a	n/a	n/a	n/a	n/a	Run3BlockList	1	n/a	n/a	n/a	n/a	n/a	n/a	n/a	n/a	n/a	n/a	n/a	n/a	n/a	n/a	n/a	n/a	n/a	n/a	n/a	n/a	n/a	n/a	n/a	n/a	n/a	n/a	n/a	n/a	n/a	n/a	n/a	n/a	n/a	n/a	n/a	n/a	1.0	1.0	1.0	n/a	n/a	n/a	n/a	n/a	n/a	n/a	n/a	n/a	n/a	n/a	n/a	n/a	n/a	n/a	n/a	n/a	n/a	n/a	n/a	n/a	n/a	n/a	n/a	n/a	n/a	n/a	n/a	n/a	n/a	n/a	n/a	n/a	n/a	n/a	n/a	n/a	n/a	n/a	n/a	n/a	n/a	n/a	n/a	n/a	n/a	n/a	n/a	n/a	n/a	n/a	C3_01.jpg	500	0	417571	0	417571	0	TrialProc1	C3LowLargeEDBlockList	2500	0	415071	0	415071	0	415071	2500	d	2350	417421	133.998
137	2.5	000_R01_VA_allProc	132	1	"<?xml version=""1.0""?>\n<Clock xmlns:dt=""urn:schemas-microsoft-com:datatypes""><Description dt:dt=""string"">E-Prime Primary Realtime Clock</Description><StartTime><Timestamp dt:dt=""int"">0</Timestamp><DateUtc dt:dt=""string"">2022-06-23T16:43:59Z</DateUtc></StartTime><FrequencyChanges><FrequencyChange><Frequency dt:dt=""r8"">3020380</Frequency><Timestamp dt:dt=""r8"">275391879198</Timestamp><Current dt:dt=""r8"">0</Current><DateUtc dt:dt=""string"">2022-06-23T16:43:59Z</DateUtc></FrequencyChange></FrequencyChanges></Clock>\n"	000_R01_VA_allProc-132-1	60.001	1.0.0.229	1	514577090	Professional	2.0.10.356	2.0.10.356	06-23-2022	6/23/2022 4:43:59 PM	12:43:59	2.0.10.252	2	0	0	281073	23	281073	4000	-999999	444852	0	441071	0	Run3Proc	2	1	2	RunList	6	LowLargeED	8000	0	433071	0	433071	0	433071	0	C3LowLargeEDBlockProc	n/a	n/a	n/a	n/a	n/a	n/a	6.0	1.0	6.0	n/a	n/a	n/a	n/a	n/a	n/a	Run3BlockList	2	n/a	n/a	n/a	n/a	n/a	n/a	n/a	n/a	n/a	n/a	n/a	n/a	n/a	n/a	n/a	n/a	n/a	n/a	n/a	n/a	n/a	n/a	n/a	n/a	n/a	n/a	n/a	n/a	n/a	n/a	n/a	n/a	n/a	n/a	n/a	n/a	2.0	1.0	2.0	n/a	n/a	n/a	n/a	n/a	n/a	n/a	n/a	n/a	n/a	n/a	n/a	n/a	n/a	n/a	n/a	n/a	n/a	n/a	n/a	n/a	n/a	n/a	n/a	n/a	n/a	n/a	n/a	n/a	n/a	n/a	n/a	n/a	n/a	n/a	n/a	n/a	n/a	n/a	n/a	n/a	n/a	n/a	n/a	n/a	n/a	n/a	n/a	n/a	n/a	n/a	C3_02.jpg	500	0	420571	0	420571	0	TrialProc1	C3LowLargeEDBlockList	2500	0	418071	0	418071	0	418071	2500	d	1654	419725	136.998
140	2.5	000_R01_VA_allProc	132	1	"<?xml version=""1.0""?>\n<Clock xmlns:dt=""urn:schemas-microsoft-com:datatypes""><Description dt:dt=""string"">E-Prime Primary Realtime Clock</Description><StartTime><Timestamp dt:dt=""int"">0</Timestamp><DateUtc dt:dt=""string"">2022-06-23T16:43:59Z</DateUtc></StartTime><FrequencyChanges><FrequencyChange><Frequency dt:dt=""r8"">3020380</Frequency><Timestamp dt:dt=""r8"">275391879198</Timestamp><Current dt:dt=""r8"">0</Current><DateUtc dt:dt=""string"">2022-06-23T16:43:59Z</DateUtc></FrequencyChange></FrequencyChanges></Clock>\n"	000_R01_VA_allProc-132-1	60.001	1.0.0.229	1	514577090	Professional	2.0.10.356	2.0.10.356	06-23-2022	6/23/2022 4:43:59 PM	12:43:59	2.0.10.252	2	0	0	281073	23	281073	4000	-999999	444852	0	441071	0	Run3Proc	2	1	2	RunList	6	LowLargeED	8000	0	433071	0	433071	0	433071	0	C3LowLargeEDBlockProc	n/a	n/a	n/a	n/a	n/a	n/a	6.0	1.0	6.0	n/a	n/a	n/a	n/a	n/a	n/a	Run3BlockList	3	n/a	n/a	n/a	n/a	n/a	n/a	n/a	n/a	n/a	n/a	n/a	n/a	n/a	n/a	n/a	n/a	n/a	n/a	n/a	n/a	n/a	n/a	n/a	n/a	n/a	n/a	n/a	n/a	n/a	n/a	n/a	n/a	n/a	n/a	n/a	n/a	3.0	1.0	3.0	n/a	n/a	n/a	n/a	n/a	n/a	n/a	n/a	n/a	n/a	n/a	n/a	n/a	n/a	n/a	n/a	n/a	n/a	n/a	n/a	n/a	n/a	n/a	n/a	n/a	n/a	n/a	n/a	n/a	n/a	n/a	n/a	n/a	n/a	n/a	n/a	n/a	n/a	n/a	n/a	n/a	n/a	n/a	n/a	n/a	n/a	n/a	n/a	n/a	n/a	n/a	C3_03.jpg	500	0	423571	0	423571	0	TrialProc1	C3LowLargeEDBlockList	2500	0	421071	0	421071	0	421071	2500	c	1974	423045	139.998
143	2.5	000_R01_VA_allProc	132	1	"<?xml version=""1.0""?>\n<Clock xmlns:dt=""urn:schemas-microsoft-com:datatypes""><Description dt:dt=""string"">E-Prime Primary Realtime Clock</Description><StartTime><Timestamp dt:dt=""int"">0</Timestamp><DateUtc dt:dt=""string"">2022-06-23T16:43:59Z</DateUtc></StartTime><FrequencyChanges><FrequencyChange><Frequency dt:dt=""r8"">3020380</Frequency><Timestamp dt:dt=""r8"">275391879198</Timestamp><Current dt:dt=""r8"">0</Current><DateUtc dt:dt=""string"">2022-06-23T16:43:59Z</DateUtc></FrequencyChange></FrequencyChanges></Clock>\n"	000_R01_VA_allProc-132-1	60.001	1.0.0.229	1	514577090	Professional	2.0.10.356	2.0.10.356	06-23-2022	6/23/2022 4:43:59 PM	12:43:59	2.0.10.252	2	0	0	281073	23	281073	4000	-999999	444852	0	441071	0	Run3Proc	2	1	2	RunList	6	LowLargeED	8000	0	433071	0	433071	0	433071	0	C3LowLargeEDBlockProc	n/a	n/a	n/a	n/a	n/a	n/a	6.0	1.0	6.0	n/a	n/a	n/a	n/a	n/a	n/a	Run3BlockList	4	n/a	n/a	n/a	n/a	n/a	n/a	n/a	n/a	n/a	n/a	n/a	n/a	n/a	n/a	n/a	n/a	n/a	n/a	n/a	n/a	n/a	n/a	n/a	n/a	n/a	n/a	n/a	n/a	n/a	n/a	n/a	n/a	n/a	n/a	n/a	n/a	4.0	1.0	4.0	n/a	n/a	n/a	n/a	n/a	n/a	n/a	n/a	n/a	n/a	n/a	n/a	n/a	n/a	n/a	n/a	n/a	n/a	n/a	n/a	n/a	n/a	n/a	n/a	n/a	n/a	n/a	n/a	n/a	n/a	n/a	n/a	n/a	n/a	n/a	n/a	n/a	n/a	n/a	n/a	n/a	n/a	n/a	n/a	n/a	n/a	n/a	n/a	n/a	n/a	n/a	C3_04.jpg	500	0	426571	0	426571	0	TrialProc1	C3LowLargeEDBlockList	2500	0	424071	0	424071	0	424071	2500	d	1366	425437	142.998
146	2.5	000_R01_VA_allProc	132	1	"<?xml version=""1.0""?>\n<Clock xmlns:dt=""urn:schemas-microsoft-com:datatypes""><Description dt:dt=""string"">E-Prime Primary Realtime Clock</Description><StartTime><Timestamp dt:dt=""int"">0</Timestamp><DateUtc dt:dt=""string"">2022-06-23T16:43:59Z</DateUtc></StartTime><FrequencyChanges><FrequencyChange><Frequency dt:dt=""r8"">3020380</Frequency><Timestamp dt:dt=""r8"">275391879198</Timestamp><Current dt:dt=""r8"">0</Current><DateUtc dt:dt=""string"">2022-06-23T16:43:59Z</DateUtc></FrequencyChange></FrequencyChanges></Clock>\n"	000_R01_VA_allProc-132-1	60.001	1.0.0.229	1	514577090	Professional	2.0.10.356	2.0.10.356	06-23-2022	6/23/2022 4:43:59 PM	12:43:59	2.0.10.252	2	0	0	281073	23	281073	4000	-999999	444852	0	441071	0	Run3Proc	2	1	2	RunList	6	LowLargeED	8000	0	433071	0	433071	0	433071	0	C3LowLargeEDBlockProc	n/a	n/a	n/a	n/a	n/a	n/a	6.0	1.0	6.0	n/a	n/a	n/a	n/a	n/a	n/a	Run3BlockList	5	n/a	n/a	n/a	n/a	n/a	n/a	n/a	n/a	n/a	n/a	n/a	n/a	n/a	n/a	n/a	n/a	n/a	n/a	n/a	n/a	n/a	n/a	n/a	n/a	n/a	n/a	n/a	n/a	n/a	n/a	n/a	n/a	n/a	n/a	n/a	n/a	5.0	1.0	5.0	n/a	n/a	n/a	n/a	n/a	n/a	n/a	n/a	n/a	n/a	n/a	n/a	n/a	n/a	n/a	n/a	n/a	n/a	n/a	n/a	n/a	n/a	n/a	n/a	n/a	n/a	n/a	n/a	n/a	n/a	n/a	n/a	n/a	n/a	n/a	n/a	n/a	n/a	n/a	n/a	n/a	n/a	n/a	n/a	n/a	n/a	n/a	n/a	n/a	n/a	n/a	C3_05.jpg	500	0	429571	0	429571	0	TrialProc1	C3LowLargeEDBlockList	2500	0	427071	0	427071	0	427071	2500	d	1718	428789	145.998
149	2.5	000_R01_VA_allProc	132	1	"<?xml version=""1.0""?>\n<Clock xmlns:dt=""urn:schemas-microsoft-com:datatypes""><Description dt:dt=""string"">E-Prime Primary Realtime Clock</Description><StartTime><Timestamp dt:dt=""int"">0</Timestamp><DateUtc dt:dt=""string"">2022-06-23T16:43:59Z</DateUtc></StartTime><FrequencyChanges><FrequencyChange><Frequency dt:dt=""r8"">3020380</Frequency><Timestamp dt:dt=""r8"">275391879198</Timestamp><Current dt:dt=""r8"">0</Current><DateUtc dt:dt=""string"">2022-06-23T16:43:59Z</DateUtc></FrequencyChange></FrequencyChanges></Clock>\n"	000_R01_VA_allProc-132-1	60.001	1.0.0.229	1	514577090	Professional	2.0.10.356	2.0.10.356	06-23-2022	6/23/2022 4:43:59 PM	12:43:59	2.0.10.252	2	0	0	281073	23	281073	4000	-999999	444852	0	441071	0	Run3Proc	2	1	2	RunList	6	LowLargeED	8000	0	433071	0	433071	0	433071	0	C3LowLargeEDBlockProc	n/a	n/a	n/a	n/a	n/a	n/a	6.0	1.0	6.0	n/a	n/a	n/a	n/a	n/a	n/a	Run3BlockList	6	n/a	n/a	n/a	n/a	n/a	n/a	n/a	n/a	n/a	n/a	n/a	n/a	n/a	n/a	n/a	n/a	n/a	n/a	n/a	n/a	n/a	n/a	n/a	n/a	n/a	n/a	n/a	n/a	n/a	n/a	n/a	n/a	n/a	n/a	n/a	n/a	6.0	1.0	6.0	n/a	n/a	n/a	n/a	n/a	n/a	n/a	n/a	n/a	n/a	n/a	n/a	n/a	n/a	n/a	n/a	n/a	n/a	n/a	n/a	n/a	n/a	n/a	n/a	n/a	n/a	n/a	n/a	n/a	n/a	n/a	n/a	n/a	n/a	n/a	n/a	n/a	n/a	n/a	n/a	n/a	n/a	n/a	n/a	n/a	n/a	n/a	n/a	n/a	n/a	n/a	C3_06.jpg	500	0	432571	0	432571	0	TrialProc1	C3LowLargeEDBlockList	2500	0	430071	0	430071	0	430071	2500	d	1958	432029	148.998
