onset	duration	experiment_name	sub	ses	clock_information	datafile_basename	display_refreshrate	experiment_version	group	randomseed	runtime_capabilities	runtime_version	runtimeversionexpected	session_date	session_start_date_time_utc	session_time	studio_version	block	fixation2trs_durationerror	fixation2trs_offsetdelay	fixation2trs_offsettime	fixation2trs_onsetdelay	fixation2trs_onsettime	fixation2trs_onsettoonsettime	goodwork_durationerror	goodwork_finishtime	goodwork_onsetdelay	goodwork_onsettime	goodwork_onsettoonsettime	procedure_block	runlist	runlist_cycle	runlist_sample	running_block	trial	condition	interblockinterval_duration	interblockinterval_durationerror	interblockinterval_finishtime	interblockinterval_offsetdelay	interblockinterval_offsettime	interblockinterval_onsetdelay	interblockinterval_onsettime	interblockinterval_onsettoonsettime	procedure_trial	run1blocklist	run1blocklist_cycle	run1blocklist_sample	run2blocklist	run2blocklist_cycle	run2blocklist_sample	run3blocklist	run3blocklist_cycle	run3blocklist_sample	run4blocklist	run4blocklist_cycle	run4blocklist_sample	run5blocklist	run5blocklist_cycle	run5blocklist_sample	running_trial	subtrial	a1highlargeedblocklist	a1highlargeedblocklist_cycle	a1highlargeedblocklist_sample	a2highlargeedblocklist	a2highlargeedblocklist_cycle	a2highlargeedblocklist_sample	a3highlargeedblocklist	a3highlargeedblocklist_cycle	a3highlargeedblocklist_sample	a4highlargeedblocklist	a4highlargeedblocklist_cycle	a4highlargeedblocklist_sample	a5highlargeedblocklist	a5highlargeedblocklist_cycle	a5highlargeedblocklist_sample	b1highsmalledblocklist	b1highsmalledblocklist_cycle	b1highsmalledblocklist_sample	b2highsmalledblocklist	b2highsmalledblocklist_cycle	b2highsmalledblocklist_sample	b3highsmalledblocklist	b3highsmalledblocklist_cycle	b3highsmalledblocklist_sample	b4highsmalledblocklist	b4highsmalledblocklist_cycle	b4highsmalledblocklist_sample	b5highsmalledblocklist	b5highsmalledblocklist_cycle	b5highsmalledblocklist_sample	c1lowlargeedblocklist	c1lowlargeedblocklist_cycle	c1lowlargeedblocklist_sample	c2lowlargeedblocklist	c2lowlargeedblocklist_cycle	c2lowlargeedblocklist_sample	c3lowlargeedblocklist	c3lowlargeedblocklist_cycle	c3lowlargeedblocklist_sample	c4lowlargeedblocklist	c4lowlargeedblocklist_cycle	c4lowlargeedblocklist_sample	c5lowlargeedblocklist	c5lowlargeedblocklist_cycle	c5lowlargeedblocklist_sample	d1lowsmalledblocklist	d1lowsmalledblocklist_cycle	d1lowsmalledblocklist_sample	d2highlargeedblocklist	d2highlargeedblocklist_cycle	d2highlargeedblocklist_sample	d3lowsmalledblocklist	d3lowsmalledblocklist_cycle	d3lowsmalledblocklist_sample	d4lowsmalledblocklist	d4lowsmalledblocklist_cycle	d4lowsmalledblocklist_sample	d5lowsmalledblocklist	d5lowsmalledblocklist_cycle	d5lowsmalledblocklist_sample	e1officelargeblocklist	e1officelargeblocklist_cycle	e1officelargeblocklist_sample	e2officelargeblocklist	e2officelargeblocklist_cycle	e2officelargeblocklist_sample	e3officelargeblocklist	e3officelargeblocklist_cycle	e3officelargeblocklist_sample	e4officelargeblocklist	e4officelargeblocklist_cycle	e4officelargeblocklist_sample	e5officelargeblocklist	e5officelargeblocklist_cycle	e5officelargeblocklist_sample	f1officesmallblocklist	f1officesmallblocklist_cycle	f1officesmallblocklist_sample	f2officesmallblocklist	f2officesmallblocklist_cycle	f2officesmallblocklist_sample	f3officesmallblocklist	f3officesmallblocklist_cycle	f3officesmallblocklist_sample	f4officesmallblocklist	f4officesmallblocklist_cycle	f4officesmallblocklist_sample	f5officesmallblocklist	f5officesmallblocklist_cycle	f5officesmallblocklist_sample	filename	isi_duration	isi_durationerror	isi_finishtime	isi_onsetdelay	isi_onsettime	isi_onsettoonsettime	procedure_subtrial	running_subtrial	stimslide_duration	stimslide_durationerror	stimslide_finishtime	stimslide_offsetdelay	stimslide_offsettime	stimslide_onsetdelay	stimslide_onsettime	stimslide_onsettoonsettime	stimslide_resp	stimslide_rt	stimslide_rttime	onset_unrounded
4	2.5	000_R01_VA_allProc	26	1	"<?xml version=""1.0""?>\n<Clock xmlns:dt=""urn:schemas-microsoft-com:datatypes""><Description dt:dt=""string"">E-Prime Primary Realtime Clock</Description><StartTime><Timestamp dt:dt=""int"">0</Timestamp><DateUtc dt:dt=""string"">2018-07-23T20:14:27Z</DateUtc></StartTime><FrequencyChanges><FrequencyChange><Frequency dt:dt=""r8"">3020371</Frequency><Timestamp dt:dt=""r8"">76926863335</Timestamp><Current dt:dt=""r8"">0</Current><DateUtc dt:dt=""string"">2018-07-23T20:14:27Z</DateUtc></FrequencyChange></FrequencyChanges></Clock>\n"	000_R01_VA_allProc-26-1	60.022	1.0.0.178	1	-381941070	Professional	2.0.10.356	2.0.10.356	7/23/18	7/23/18 20:14	16:14:27	2.0.10.252	4	0	0	610706	9	610706	3999	-999999	787133	-3	770648	0	Run5Proc	4	1	4	RunList	1	LowLargeED	8000.0	0.0	632698.0	0.0	632698.0	0.0	632698.0	0.0	C5LowLargeEDBlockProc	n/a	n/a	n/a	n/a	n/a	n/a	n/a	n/a	n/a	n/a	n/a	n/a	1.0	1.0	1.0	Run5BlockList	1	n/a	n/a	n/a	n/a	n/a	n/a	n/a	n/a	n/a	n/a	n/a	n/a	n/a	n/a	n/a	n/a	n/a	n/a	n/a	n/a	n/a	n/a	n/a	n/a	n/a	n/a	n/a	n/a	n/a	n/a	n/a	n/a	n/a	n/a	n/a	n/a	n/a	n/a	n/a	n/a	n/a	n/a	1.0	1.0	1.0	n/a	n/a	n/a	n/a	n/a	n/a	n/a	n/a	n/a	n/a	n/a	n/a	n/a	n/a	n/a	n/a	n/a	n/a	n/a	n/a	n/a	n/a	n/a	n/a	n/a	n/a	n/a	n/a	n/a	n/a	n/a	n/a	n/a	n/a	n/a	n/a	n/a	n/a	n/a	n/a	n/a	n/a	n/a	n/a	n/a	C5_01.jpg	500	0	617204	-1	617204	0	TrialProc1	C5LowLargeEDBlockList	2500	0	614705	0	614705	-1	614705	2499	n/a	0	0	4.0
7	2.5	000_R01_VA_allProc	26	1	"<?xml version=""1.0""?>\n<Clock xmlns:dt=""urn:schemas-microsoft-com:datatypes""><Description dt:dt=""string"">E-Prime Primary Realtime Clock</Description><StartTime><Timestamp dt:dt=""int"">0</Timestamp><DateUtc dt:dt=""string"">2018-07-23T20:14:27Z</DateUtc></StartTime><FrequencyChanges><FrequencyChange><Frequency dt:dt=""r8"">3020371</Frequency><Timestamp dt:dt=""r8"">76926863335</Timestamp><Current dt:dt=""r8"">0</Current><DateUtc dt:dt=""string"">2018-07-23T20:14:27Z</DateUtc></FrequencyChange></FrequencyChanges></Clock>\n"	000_R01_VA_allProc-26-1	60.022	1.0.0.178	1	-381941070	Professional	2.0.10.356	2.0.10.356	7/23/18	7/23/18 20:14	16:14:27	2.0.10.252	4	0	0	610706	9	610706	3999	-999999	787133	-3	770648	0	Run5Proc	4	1	4	RunList	1	LowLargeED	8000.0	0.0	632698.0	0.0	632698.0	0.0	632698.0	0.0	C5LowLargeEDBlockProc	n/a	n/a	n/a	n/a	n/a	n/a	n/a	n/a	n/a	n/a	n/a	n/a	1.0	1.0	1.0	Run5BlockList	2	n/a	n/a	n/a	n/a	n/a	n/a	n/a	n/a	n/a	n/a	n/a	n/a	n/a	n/a	n/a	n/a	n/a	n/a	n/a	n/a	n/a	n/a	n/a	n/a	n/a	n/a	n/a	n/a	n/a	n/a	n/a	n/a	n/a	n/a	n/a	n/a	n/a	n/a	n/a	n/a	n/a	n/a	2.0	1.0	2.0	n/a	n/a	n/a	n/a	n/a	n/a	n/a	n/a	n/a	n/a	n/a	n/a	n/a	n/a	n/a	n/a	n/a	n/a	n/a	n/a	n/a	n/a	n/a	n/a	n/a	n/a	n/a	n/a	n/a	n/a	n/a	n/a	n/a	n/a	n/a	n/a	n/a	n/a	n/a	n/a	n/a	n/a	n/a	n/a	n/a	C5_02.jpg	500	0	620203	0	620203	0	TrialProc1	C5LowLargeEDBlockList	2500	1	617704	1	617704	-1	617703	2500	d	864	618567	6.998
10	2.5	000_R01_VA_allProc	26	1	"<?xml version=""1.0""?>\n<Clock xmlns:dt=""urn:schemas-microsoft-com:datatypes""><Description dt:dt=""string"">E-Prime Primary Realtime Clock</Description><StartTime><Timestamp dt:dt=""int"">0</Timestamp><DateUtc dt:dt=""string"">2018-07-23T20:14:27Z</DateUtc></StartTime><FrequencyChanges><FrequencyChange><Frequency dt:dt=""r8"">3020371</Frequency><Timestamp dt:dt=""r8"">76926863335</Timestamp><Current dt:dt=""r8"">0</Current><DateUtc dt:dt=""string"">2018-07-23T20:14:27Z</DateUtc></FrequencyChange></FrequencyChanges></Clock>\n"	000_R01_VA_allProc-26-1	60.022	1.0.0.178	1	-381941070	Professional	2.0.10.356	2.0.10.356	7/23/18	7/23/18 20:14	16:14:27	2.0.10.252	4	0	0	610706	9	610706	3999	-999999	787133	-3	770648	0	Run5Proc	4	1	4	RunList	1	LowLargeED	8000.0	0.0	632698.0	0.0	632698.0	0.0	632698.0	0.0	C5LowLargeEDBlockProc	n/a	n/a	n/a	n/a	n/a	n/a	n/a	n/a	n/a	n/a	n/a	n/a	1.0	1.0	1.0	Run5BlockList	3	n/a	n/a	n/a	n/a	n/a	n/a	n/a	n/a	n/a	n/a	n/a	n/a	n/a	n/a	n/a	n/a	n/a	n/a	n/a	n/a	n/a	n/a	n/a	n/a	n/a	n/a	n/a	n/a	n/a	n/a	n/a	n/a	n/a	n/a	n/a	n/a	n/a	n/a	n/a	n/a	n/a	n/a	3.0	1.0	3.0	n/a	n/a	n/a	n/a	n/a	n/a	n/a	n/a	n/a	n/a	n/a	n/a	n/a	n/a	n/a	n/a	n/a	n/a	n/a	n/a	n/a	n/a	n/a	n/a	n/a	n/a	n/a	n/a	n/a	n/a	n/a	n/a	n/a	n/a	n/a	n/a	n/a	n/a	n/a	n/a	n/a	n/a	n/a	n/a	n/a	C5_03.jpg	500	1	623202	-1	623201	0	TrialProc1	C5LowLargeEDBlockList	2500	0	620702	0	620702	-1	620702	2499	d	865	621567	9.997
13	2.5	000_R01_VA_allProc	26	1	"<?xml version=""1.0""?>\n<Clock xmlns:dt=""urn:schemas-microsoft-com:datatypes""><Description dt:dt=""string"">E-Prime Primary Realtime Clock</Description><StartTime><Timestamp dt:dt=""int"">0</Timestamp><DateUtc dt:dt=""string"">2018-07-23T20:14:27Z</DateUtc></StartTime><FrequencyChanges><FrequencyChange><Frequency dt:dt=""r8"">3020371</Frequency><Timestamp dt:dt=""r8"">76926863335</Timestamp><Current dt:dt=""r8"">0</Current><DateUtc dt:dt=""string"">2018-07-23T20:14:27Z</DateUtc></FrequencyChange></FrequencyChanges></Clock>\n"	000_R01_VA_allProc-26-1	60.022	1.0.0.178	1	-381941070	Professional	2.0.10.356	2.0.10.356	7/23/18	7/23/18 20:14	16:14:27	2.0.10.252	4	0	0	610706	9	610706	3999	-999999	787133	-3	770648	0	Run5Proc	4	1	4	RunList	1	LowLargeED	8000.0	0.0	632698.0	0.0	632698.0	0.0	632698.0	0.0	C5LowLargeEDBlockProc	n/a	n/a	n/a	n/a	n/a	n/a	n/a	n/a	n/a	n/a	n/a	n/a	1.0	1.0	1.0	Run5BlockList	4	n/a	n/a	n/a	n/a	n/a	n/a	n/a	n/a	n/a	n/a	n/a	n/a	n/a	n/a	n/a	n/a	n/a	n/a	n/a	n/a	n/a	n/a	n/a	n/a	n/a	n/a	n/a	n/a	n/a	n/a	n/a	n/a	n/a	n/a	n/a	n/a	n/a	n/a	n/a	n/a	n/a	n/a	4.0	1.0	4.0	n/a	n/a	n/a	n/a	n/a	n/a	n/a	n/a	n/a	n/a	n/a	n/a	n/a	n/a	n/a	n/a	n/a	n/a	n/a	n/a	n/a	n/a	n/a	n/a	n/a	n/a	n/a	n/a	n/a	n/a	n/a	n/a	n/a	n/a	n/a	n/a	n/a	n/a	n/a	n/a	n/a	n/a	n/a	n/a	n/a	C5_04.jpg	500	0	626200	-1	626200	0	TrialProc1	C5LowLargeEDBlockList	2500	0	623701	0	623701	0	623701	2499	d	786	624487	12.996
16	2.5	000_R01_VA_allProc	26	1	"<?xml version=""1.0""?>\n<Clock xmlns:dt=""urn:schemas-microsoft-com:datatypes""><Description dt:dt=""string"">E-Prime Primary Realtime Clock</Description><StartTime><Timestamp dt:dt=""int"">0</Timestamp><DateUtc dt:dt=""string"">2018-07-23T20:14:27Z</DateUtc></StartTime><FrequencyChanges><FrequencyChange><Frequency dt:dt=""r8"">3020371</Frequency><Timestamp dt:dt=""r8"">76926863335</Timestamp><Current dt:dt=""r8"">0</Current><DateUtc dt:dt=""string"">2018-07-23T20:14:27Z</DateUtc></FrequencyChange></FrequencyChanges></Clock>\n"	000_R01_VA_allProc-26-1	60.022	1.0.0.178	1	-381941070	Professional	2.0.10.356	2.0.10.356	7/23/18	7/23/18 20:14	16:14:27	2.0.10.252	4	0	0	610706	9	610706	3999	-999999	787133	-3	770648	0	Run5Proc	4	1	4	RunList	1	LowLargeED	8000.0	0.0	632698.0	0.0	632698.0	0.0	632698.0	0.0	C5LowLargeEDBlockProc	n/a	n/a	n/a	n/a	n/a	n/a	n/a	n/a	n/a	n/a	n/a	n/a	1.0	1.0	1.0	Run5BlockList	5	n/a	n/a	n/a	n/a	n/a	n/a	n/a	n/a	n/a	n/a	n/a	n/a	n/a	n/a	n/a	n/a	n/a	n/a	n/a	n/a	n/a	n/a	n/a	n/a	n/a	n/a	n/a	n/a	n/a	n/a	n/a	n/a	n/a	n/a	n/a	n/a	n/a	n/a	n/a	n/a	n/a	n/a	5.0	1.0	5.0	n/a	n/a	n/a	n/a	n/a	n/a	n/a	n/a	n/a	n/a	n/a	n/a	n/a	n/a	n/a	n/a	n/a	n/a	n/a	n/a	n/a	n/a	n/a	n/a	n/a	n/a	n/a	n/a	n/a	n/a	n/a	n/a	n/a	n/a	n/a	n/a	n/a	n/a	n/a	n/a	n/a	n/a	n/a	n/a	n/a	C5_05.jpg	500	0	629199	-1	629199	0	TrialProc1	C5LowLargeEDBlockList	2500	0	626700	0	626700	0	626700	2499	d	811	627511	15.995
19	2.5	000_R01_VA_allProc	26	1	"<?xml version=""1.0""?>\n<Clock xmlns:dt=""urn:schemas-microsoft-com:datatypes""><Description dt:dt=""string"">E-Prime Primary Realtime Clock</Description><StartTime><Timestamp dt:dt=""int"">0</Timestamp><DateUtc dt:dt=""string"">2018-07-23T20:14:27Z</DateUtc></StartTime><FrequencyChanges><FrequencyChange><Frequency dt:dt=""r8"">3020371</Frequency><Timestamp dt:dt=""r8"">76926863335</Timestamp><Current dt:dt=""r8"">0</Current><DateUtc dt:dt=""string"">2018-07-23T20:14:27Z</DateUtc></FrequencyChange></FrequencyChanges></Clock>\n"	000_R01_VA_allProc-26-1	60.022	1.0.0.178	1	-381941070	Professional	2.0.10.356	2.0.10.356	7/23/18	7/23/18 20:14	16:14:27	2.0.10.252	4	0	0	610706	9	610706	3999	-999999	787133	-3	770648	0	Run5Proc	4	1	4	RunList	1	LowLargeED	8000.0	0.0	632698.0	0.0	632698.0	0.0	632698.0	0.0	C5LowLargeEDBlockProc	n/a	n/a	n/a	n/a	n/a	n/a	n/a	n/a	n/a	n/a	n/a	n/a	1.0	1.0	1.0	Run5BlockList	6	n/a	n/a	n/a	n/a	n/a	n/a	n/a	n/a	n/a	n/a	n/a	n/a	n/a	n/a	n/a	n/a	n/a	n/a	n/a	n/a	n/a	n/a	n/a	n/a	n/a	n/a	n/a	n/a	n/a	n/a	n/a	n/a	n/a	n/a	n/a	n/a	n/a	n/a	n/a	n/a	n/a	n/a	6.0	1.0	6.0	n/a	n/a	n/a	n/a	n/a	n/a	n/a	n/a	n/a	n/a	n/a	n/a	n/a	n/a	n/a	n/a	n/a	n/a	n/a	n/a	n/a	n/a	n/a	n/a	n/a	n/a	n/a	n/a	n/a	n/a	n/a	n/a	n/a	n/a	n/a	n/a	n/a	n/a	n/a	n/a	n/a	n/a	n/a	n/a	n/a	C5_06.jpg	500	0	632198	-1	632198	0	TrialProc1	C5LowLargeEDBlockList	2500	0	629699	0	629699	0	629699	2499	d	1220	630919	18.994
30	2.5	000_R01_VA_allProc	26	1	"<?xml version=""1.0""?>\n<Clock xmlns:dt=""urn:schemas-microsoft-com:datatypes""><Description dt:dt=""string"">E-Prime Primary Realtime Clock</Description><StartTime><Timestamp dt:dt=""int"">0</Timestamp><DateUtc dt:dt=""string"">2018-07-23T20:14:27Z</DateUtc></StartTime><FrequencyChanges><FrequencyChange><Frequency dt:dt=""r8"">3020371</Frequency><Timestamp dt:dt=""r8"">76926863335</Timestamp><Current dt:dt=""r8"">0</Current><DateUtc dt:dt=""string"">2018-07-23T20:14:27Z</DateUtc></FrequencyChange></FrequencyChanges></Clock>\n"	000_R01_VA_allProc-26-1	60.022	1.0.0.178	1	-381941070	Professional	2.0.10.356	2.0.10.356	7/23/18	7/23/18 20:14	16:14:27	2.0.10.252	4	0	0	610706	9	610706	3999	-999999	787133	-3	770648	0	Run5Proc	4	1	4	RunList	2	OfficeSmall	8000.0	0.0	658689.0	0.0	658689.0	0.0	658689.0	0.0	F5OfficeSmallBlockProc	n/a	n/a	n/a	n/a	n/a	n/a	n/a	n/a	n/a	n/a	n/a	n/a	2.0	1.0	2.0	Run5BlockList	1	n/a	n/a	n/a	n/a	n/a	n/a	n/a	n/a	n/a	n/a	n/a	n/a	n/a	n/a	n/a	n/a	n/a	n/a	n/a	n/a	n/a	n/a	n/a	n/a	n/a	n/a	n/a	n/a	n/a	n/a	n/a	n/a	n/a	n/a	n/a	n/a	n/a	n/a	n/a	n/a	n/a	n/a	n/a	n/a	n/a	n/a	n/a	n/a	n/a	n/a	n/a	n/a	n/a	n/a	n/a	n/a	n/a	n/a	n/a	n/a	n/a	n/a	n/a	n/a	n/a	n/a	n/a	n/a	n/a	n/a	n/a	n/a	n/a	n/a	n/a	n/a	n/a	n/a	n/a	n/a	n/a	n/a	n/a	n/a	n/a	n/a	n/a	1.0	1.0	1.0	F5_01.jpg	500	0	643194	-1	643194	0	TrialProc1	F5OfficeSmallBlockList	2500	0	640695	0	640695	-3	640695	2499	c	1544	642239	29.99
33	2.5	000_R01_VA_allProc	26	1	"<?xml version=""1.0""?>\n<Clock xmlns:dt=""urn:schemas-microsoft-com:datatypes""><Description dt:dt=""string"">E-Prime Primary Realtime Clock</Description><StartTime><Timestamp dt:dt=""int"">0</Timestamp><DateUtc dt:dt=""string"">2018-07-23T20:14:27Z</DateUtc></StartTime><FrequencyChanges><FrequencyChange><Frequency dt:dt=""r8"">3020371</Frequency><Timestamp dt:dt=""r8"">76926863335</Timestamp><Current dt:dt=""r8"">0</Current><DateUtc dt:dt=""string"">2018-07-23T20:14:27Z</DateUtc></FrequencyChange></FrequencyChanges></Clock>\n"	000_R01_VA_allProc-26-1	60.022	1.0.0.178	1	-381941070	Professional	2.0.10.356	2.0.10.356	7/23/18	7/23/18 20:14	16:14:27	2.0.10.252	4	0	0	610706	9	610706	3999	-999999	787133	-3	770648	0	Run5Proc	4	1	4	RunList	2	OfficeSmall	8000.0	0.0	658689.0	0.0	658689.0	0.0	658689.0	0.0	F5OfficeSmallBlockProc	n/a	n/a	n/a	n/a	n/a	n/a	n/a	n/a	n/a	n/a	n/a	n/a	2.0	1.0	2.0	Run5BlockList	2	n/a	n/a	n/a	n/a	n/a	n/a	n/a	n/a	n/a	n/a	n/a	n/a	n/a	n/a	n/a	n/a	n/a	n/a	n/a	n/a	n/a	n/a	n/a	n/a	n/a	n/a	n/a	n/a	n/a	n/a	n/a	n/a	n/a	n/a	n/a	n/a	n/a	n/a	n/a	n/a	n/a	n/a	n/a	n/a	n/a	n/a	n/a	n/a	n/a	n/a	n/a	n/a	n/a	n/a	n/a	n/a	n/a	n/a	n/a	n/a	n/a	n/a	n/a	n/a	n/a	n/a	n/a	n/a	n/a	n/a	n/a	n/a	n/a	n/a	n/a	n/a	n/a	n/a	n/a	n/a	n/a	n/a	n/a	n/a	n/a	n/a	n/a	2.0	1.0	2.0	F5_02.jpg	500	0	646193	-1	646193	0	TrialProc1	F5OfficeSmallBlockList	2500	0	643694	0	643694	0	643694	2499	c	2009	645703	32.989000000000004
36	2.5	000_R01_VA_allProc	26	1	"<?xml version=""1.0""?>\n<Clock xmlns:dt=""urn:schemas-microsoft-com:datatypes""><Description dt:dt=""string"">E-Prime Primary Realtime Clock</Description><StartTime><Timestamp dt:dt=""int"">0</Timestamp><DateUtc dt:dt=""string"">2018-07-23T20:14:27Z</DateUtc></StartTime><FrequencyChanges><FrequencyChange><Frequency dt:dt=""r8"">3020371</Frequency><Timestamp dt:dt=""r8"">76926863335</Timestamp><Current dt:dt=""r8"">0</Current><DateUtc dt:dt=""string"">2018-07-23T20:14:27Z</DateUtc></FrequencyChange></FrequencyChanges></Clock>\n"	000_R01_VA_allProc-26-1	60.022	1.0.0.178	1	-381941070	Professional	2.0.10.356	2.0.10.356	7/23/18	7/23/18 20:14	16:14:27	2.0.10.252	4	0	0	610706	9	610706	3999	-999999	787133	-3	770648	0	Run5Proc	4	1	4	RunList	2	OfficeSmall	8000.0	0.0	658689.0	0.0	658689.0	0.0	658689.0	0.0	F5OfficeSmallBlockProc	n/a	n/a	n/a	n/a	n/a	n/a	n/a	n/a	n/a	n/a	n/a	n/a	2.0	1.0	2.0	Run5BlockList	3	n/a	n/a	n/a	n/a	n/a	n/a	n/a	n/a	n/a	n/a	n/a	n/a	n/a	n/a	n/a	n/a	n/a	n/a	n/a	n/a	n/a	n/a	n/a	n/a	n/a	n/a	n/a	n/a	n/a	n/a	n/a	n/a	n/a	n/a	n/a	n/a	n/a	n/a	n/a	n/a	n/a	n/a	n/a	n/a	n/a	n/a	n/a	n/a	n/a	n/a	n/a	n/a	n/a	n/a	n/a	n/a	n/a	n/a	n/a	n/a	n/a	n/a	n/a	n/a	n/a	n/a	n/a	n/a	n/a	n/a	n/a	n/a	n/a	n/a	n/a	n/a	n/a	n/a	n/a	n/a	n/a	n/a	n/a	n/a	n/a	n/a	n/a	3.0	1.0	3.0	F5_03.jpg	500	0	649192	-1	649192	0	TrialProc1	F5OfficeSmallBlockList	2500	0	646693	0	646693	0	646693	2499	c	1098	647791	35.988
39	2.5	000_R01_VA_allProc	26	1	"<?xml version=""1.0""?>\n<Clock xmlns:dt=""urn:schemas-microsoft-com:datatypes""><Description dt:dt=""string"">E-Prime Primary Realtime Clock</Description><StartTime><Timestamp dt:dt=""int"">0</Timestamp><DateUtc dt:dt=""string"">2018-07-23T20:14:27Z</DateUtc></StartTime><FrequencyChanges><FrequencyChange><Frequency dt:dt=""r8"">3020371</Frequency><Timestamp dt:dt=""r8"">76926863335</Timestamp><Current dt:dt=""r8"">0</Current><DateUtc dt:dt=""string"">2018-07-23T20:14:27Z</DateUtc></FrequencyChange></FrequencyChanges></Clock>\n"	000_R01_VA_allProc-26-1	60.022	1.0.0.178	1	-381941070	Professional	2.0.10.356	2.0.10.356	7/23/18	7/23/18 20:14	16:14:27	2.0.10.252	4	0	0	610706	9	610706	3999	-999999	787133	-3	770648	0	Run5Proc	4	1	4	RunList	2	OfficeSmall	8000.0	0.0	658689.0	0.0	658689.0	0.0	658689.0	0.0	F5OfficeSmallBlockProc	n/a	n/a	n/a	n/a	n/a	n/a	n/a	n/a	n/a	n/a	n/a	n/a	2.0	1.0	2.0	Run5BlockList	4	n/a	n/a	n/a	n/a	n/a	n/a	n/a	n/a	n/a	n/a	n/a	n/a	n/a	n/a	n/a	n/a	n/a	n/a	n/a	n/a	n/a	n/a	n/a	n/a	n/a	n/a	n/a	n/a	n/a	n/a	n/a	n/a	n/a	n/a	n/a	n/a	n/a	n/a	n/a	n/a	n/a	n/a	n/a	n/a	n/a	n/a	n/a	n/a	n/a	n/a	n/a	n/a	n/a	n/a	n/a	n/a	n/a	n/a	n/a	n/a	n/a	n/a	n/a	n/a	n/a	n/a	n/a	n/a	n/a	n/a	n/a	n/a	n/a	n/a	n/a	n/a	n/a	n/a	n/a	n/a	n/a	n/a	n/a	n/a	n/a	n/a	n/a	4.0	1.0	4.0	F5_04.jpg	500	0	652191	-1	652191	0	TrialProc1	F5OfficeSmallBlockList	2500	0	649692	0	649692	0	649692	2499	c	939	650631	38.987
42	2.5	000_R01_VA_allProc	26	1	"<?xml version=""1.0""?>\n<Clock xmlns:dt=""urn:schemas-microsoft-com:datatypes""><Description dt:dt=""string"">E-Prime Primary Realtime Clock</Description><StartTime><Timestamp dt:dt=""int"">0</Timestamp><DateUtc dt:dt=""string"">2018-07-23T20:14:27Z</DateUtc></StartTime><FrequencyChanges><FrequencyChange><Frequency dt:dt=""r8"">3020371</Frequency><Timestamp dt:dt=""r8"">76926863335</Timestamp><Current dt:dt=""r8"">0</Current><DateUtc dt:dt=""string"">2018-07-23T20:14:27Z</DateUtc></FrequencyChange></FrequencyChanges></Clock>\n"	000_R01_VA_allProc-26-1	60.022	1.0.0.178	1	-381941070	Professional	2.0.10.356	2.0.10.356	7/23/18	7/23/18 20:14	16:14:27	2.0.10.252	4	0	0	610706	9	610706	3999	-999999	787133	-3	770648	0	Run5Proc	4	1	4	RunList	2	OfficeSmall	8000.0	0.0	658689.0	0.0	658689.0	0.0	658689.0	0.0	F5OfficeSmallBlockProc	n/a	n/a	n/a	n/a	n/a	n/a	n/a	n/a	n/a	n/a	n/a	n/a	2.0	1.0	2.0	Run5BlockList	5	n/a	n/a	n/a	n/a	n/a	n/a	n/a	n/a	n/a	n/a	n/a	n/a	n/a	n/a	n/a	n/a	n/a	n/a	n/a	n/a	n/a	n/a	n/a	n/a	n/a	n/a	n/a	n/a	n/a	n/a	n/a	n/a	n/a	n/a	n/a	n/a	n/a	n/a	n/a	n/a	n/a	n/a	n/a	n/a	n/a	n/a	n/a	n/a	n/a	n/a	n/a	n/a	n/a	n/a	n/a	n/a	n/a	n/a	n/a	n/a	n/a	n/a	n/a	n/a	n/a	n/a	n/a	n/a	n/a	n/a	n/a	n/a	n/a	n/a	n/a	n/a	n/a	n/a	n/a	n/a	n/a	n/a	n/a	n/a	n/a	n/a	n/a	5.0	1.0	5.0	F5_05.jpg	500	0	655190	-1	655190	0	TrialProc1	F5OfficeSmallBlockList	2500	0	652691	0	652691	0	652691	2499	c	764	653455	41.986
45	2.5	000_R01_VA_allProc	26	1	"<?xml version=""1.0""?>\n<Clock xmlns:dt=""urn:schemas-microsoft-com:datatypes""><Description dt:dt=""string"">E-Prime Primary Realtime Clock</Description><StartTime><Timestamp dt:dt=""int"">0</Timestamp><DateUtc dt:dt=""string"">2018-07-23T20:14:27Z</DateUtc></StartTime><FrequencyChanges><FrequencyChange><Frequency dt:dt=""r8"">3020371</Frequency><Timestamp dt:dt=""r8"">76926863335</Timestamp><Current dt:dt=""r8"">0</Current><DateUtc dt:dt=""string"">2018-07-23T20:14:27Z</DateUtc></FrequencyChange></FrequencyChanges></Clock>\n"	000_R01_VA_allProc-26-1	60.022	1.0.0.178	1	-381941070	Professional	2.0.10.356	2.0.10.356	7/23/18	7/23/18 20:14	16:14:27	2.0.10.252	4	0	0	610706	9	610706	3999	-999999	787133	-3	770648	0	Run5Proc	4	1	4	RunList	2	OfficeSmall	8000.0	0.0	658689.0	0.0	658689.0	0.0	658689.0	0.0	F5OfficeSmallBlockProc	n/a	n/a	n/a	n/a	n/a	n/a	n/a	n/a	n/a	n/a	n/a	n/a	2.0	1.0	2.0	Run5BlockList	6	n/a	n/a	n/a	n/a	n/a	n/a	n/a	n/a	n/a	n/a	n/a	n/a	n/a	n/a	n/a	n/a	n/a	n/a	n/a	n/a	n/a	n/a	n/a	n/a	n/a	n/a	n/a	n/a	n/a	n/a	n/a	n/a	n/a	n/a	n/a	n/a	n/a	n/a	n/a	n/a	n/a	n/a	n/a	n/a	n/a	n/a	n/a	n/a	n/a	n/a	n/a	n/a	n/a	n/a	n/a	n/a	n/a	n/a	n/a	n/a	n/a	n/a	n/a	n/a	n/a	n/a	n/a	n/a	n/a	n/a	n/a	n/a	n/a	n/a	n/a	n/a	n/a	n/a	n/a	n/a	n/a	n/a	n/a	n/a	n/a	n/a	n/a	6.0	1.0	6.0	F5_06.jpg	500	0	658189	-1	658189	0	TrialProc1	F5OfficeSmallBlockList	2500	0	655690	0	655690	0	655690	2499	c	677	656367	44.985
56	2.5	000_R01_VA_allProc	26	1	"<?xml version=""1.0""?>\n<Clock xmlns:dt=""urn:schemas-microsoft-com:datatypes""><Description dt:dt=""string"">E-Prime Primary Realtime Clock</Description><StartTime><Timestamp dt:dt=""int"">0</Timestamp><DateUtc dt:dt=""string"">2018-07-23T20:14:27Z</DateUtc></StartTime><FrequencyChanges><FrequencyChange><Frequency dt:dt=""r8"">3020371</Frequency><Timestamp dt:dt=""r8"">76926863335</Timestamp><Current dt:dt=""r8"">0</Current><DateUtc dt:dt=""string"">2018-07-23T20:14:27Z</DateUtc></FrequencyChange></FrequencyChanges></Clock>\n"	000_R01_VA_allProc-26-1	60.022	1.0.0.178	1	-381941070	Professional	2.0.10.356	2.0.10.356	7/23/18	7/23/18 20:14	16:14:27	2.0.10.252	4	0	0	610706	9	610706	3999	-999999	787133	-3	770648	0	Run5Proc	4	1	4	RunList	3	HighSmallED	8000.0	0.0	684679.0	0.0	684679.0	-1.0	684679.0	0.0	B5HighSmallEDBlockProc	n/a	n/a	n/a	n/a	n/a	n/a	n/a	n/a	n/a	n/a	n/a	n/a	3.0	1.0	3.0	Run5BlockList	1	n/a	n/a	n/a	n/a	n/a	n/a	n/a	n/a	n/a	n/a	n/a	n/a	n/a	n/a	n/a	n/a	n/a	n/a	n/a	n/a	n/a	n/a	n/a	n/a	n/a	n/a	n/a	1.0	1.0	1.0	n/a	n/a	n/a	n/a	n/a	n/a	n/a	n/a	n/a	n/a	n/a	n/a	n/a	n/a	n/a	n/a	n/a	n/a	n/a	n/a	n/a	n/a	n/a	n/a	n/a	n/a	n/a	n/a	n/a	n/a	n/a	n/a	n/a	n/a	n/a	n/a	n/a	n/a	n/a	n/a	n/a	n/a	n/a	n/a	n/a	n/a	n/a	n/a	n/a	n/a	n/a	n/a	n/a	n/a	n/a	n/a	n/a	n/a	n/a	n/a	B5_01.jpg	500	0	669185	-1	669185	0	TrialProc1	B5HighSmallEDBlockList	2500	0	666686	0	666686	-3	666686	2499	d	1081	667767	55.981
59	2.5	000_R01_VA_allProc	26	1	"<?xml version=""1.0""?>\n<Clock xmlns:dt=""urn:schemas-microsoft-com:datatypes""><Description dt:dt=""string"">E-Prime Primary Realtime Clock</Description><StartTime><Timestamp dt:dt=""int"">0</Timestamp><DateUtc dt:dt=""string"">2018-07-23T20:14:27Z</DateUtc></StartTime><FrequencyChanges><FrequencyChange><Frequency dt:dt=""r8"">3020371</Frequency><Timestamp dt:dt=""r8"">76926863335</Timestamp><Current dt:dt=""r8"">0</Current><DateUtc dt:dt=""string"">2018-07-23T20:14:27Z</DateUtc></FrequencyChange></FrequencyChanges></Clock>\n"	000_R01_VA_allProc-26-1	60.022	1.0.0.178	1	-381941070	Professional	2.0.10.356	2.0.10.356	7/23/18	7/23/18 20:14	16:14:27	2.0.10.252	4	0	0	610706	9	610706	3999	-999999	787133	-3	770648	0	Run5Proc	4	1	4	RunList	3	HighSmallED	8000.0	0.0	684679.0	0.0	684679.0	-1.0	684679.0	0.0	B5HighSmallEDBlockProc	n/a	n/a	n/a	n/a	n/a	n/a	n/a	n/a	n/a	n/a	n/a	n/a	3.0	1.0	3.0	Run5BlockList	2	n/a	n/a	n/a	n/a	n/a	n/a	n/a	n/a	n/a	n/a	n/a	n/a	n/a	n/a	n/a	n/a	n/a	n/a	n/a	n/a	n/a	n/a	n/a	n/a	n/a	n/a	n/a	2.0	1.0	2.0	n/a	n/a	n/a	n/a	n/a	n/a	n/a	n/a	n/a	n/a	n/a	n/a	n/a	n/a	n/a	n/a	n/a	n/a	n/a	n/a	n/a	n/a	n/a	n/a	n/a	n/a	n/a	n/a	n/a	n/a	n/a	n/a	n/a	n/a	n/a	n/a	n/a	n/a	n/a	n/a	n/a	n/a	n/a	n/a	n/a	n/a	n/a	n/a	n/a	n/a	n/a	n/a	n/a	n/a	n/a	n/a	n/a	n/a	n/a	n/a	B5_02.jpg	500	0	672184	-1	672184	0	TrialProc1	B5HighSmallEDBlockList	2500	0	669685	0	669685	0	669685	2499	d	826	670511	58.98
62	2.5	000_R01_VA_allProc	26	1	"<?xml version=""1.0""?>\n<Clock xmlns:dt=""urn:schemas-microsoft-com:datatypes""><Description dt:dt=""string"">E-Prime Primary Realtime Clock</Description><StartTime><Timestamp dt:dt=""int"">0</Timestamp><DateUtc dt:dt=""string"">2018-07-23T20:14:27Z</DateUtc></StartTime><FrequencyChanges><FrequencyChange><Frequency dt:dt=""r8"">3020371</Frequency><Timestamp dt:dt=""r8"">76926863335</Timestamp><Current dt:dt=""r8"">0</Current><DateUtc dt:dt=""string"">2018-07-23T20:14:27Z</DateUtc></FrequencyChange></FrequencyChanges></Clock>\n"	000_R01_VA_allProc-26-1	60.022	1.0.0.178	1	-381941070	Professional	2.0.10.356	2.0.10.356	7/23/18	7/23/18 20:14	16:14:27	2.0.10.252	4	0	0	610706	9	610706	3999	-999999	787133	-3	770648	0	Run5Proc	4	1	4	RunList	3	HighSmallED	8000.0	0.0	684679.0	0.0	684679.0	-1.0	684679.0	0.0	B5HighSmallEDBlockProc	n/a	n/a	n/a	n/a	n/a	n/a	n/a	n/a	n/a	n/a	n/a	n/a	3.0	1.0	3.0	Run5BlockList	3	n/a	n/a	n/a	n/a	n/a	n/a	n/a	n/a	n/a	n/a	n/a	n/a	n/a	n/a	n/a	n/a	n/a	n/a	n/a	n/a	n/a	n/a	n/a	n/a	n/a	n/a	n/a	3.0	1.0	3.0	n/a	n/a	n/a	n/a	n/a	n/a	n/a	n/a	n/a	n/a	n/a	n/a	n/a	n/a	n/a	n/a	n/a	n/a	n/a	n/a	n/a	n/a	n/a	n/a	n/a	n/a	n/a	n/a	n/a	n/a	n/a	n/a	n/a	n/a	n/a	n/a	n/a	n/a	n/a	n/a	n/a	n/a	n/a	n/a	n/a	n/a	n/a	n/a	n/a	n/a	n/a	n/a	n/a	n/a	n/a	n/a	n/a	n/a	n/a	n/a	B5_03.jpg	500	0	675183	-1	675183	0	TrialProc1	B5HighSmallEDBlockList	2500	0	672684	0	672684	0	672684	2499	d	899	673583	61.979
65	2.5	000_R01_VA_allProc	26	1	"<?xml version=""1.0""?>\n<Clock xmlns:dt=""urn:schemas-microsoft-com:datatypes""><Description dt:dt=""string"">E-Prime Primary Realtime Clock</Description><StartTime><Timestamp dt:dt=""int"">0</Timestamp><DateUtc dt:dt=""string"">2018-07-23T20:14:27Z</DateUtc></StartTime><FrequencyChanges><FrequencyChange><Frequency dt:dt=""r8"">3020371</Frequency><Timestamp dt:dt=""r8"">76926863335</Timestamp><Current dt:dt=""r8"">0</Current><DateUtc dt:dt=""string"">2018-07-23T20:14:27Z</DateUtc></FrequencyChange></FrequencyChanges></Clock>\n"	000_R01_VA_allProc-26-1	60.022	1.0.0.178	1	-381941070	Professional	2.0.10.356	2.0.10.356	7/23/18	7/23/18 20:14	16:14:27	2.0.10.252	4	0	0	610706	9	610706	3999	-999999	787133	-3	770648	0	Run5Proc	4	1	4	RunList	3	HighSmallED	8000.0	0.0	684679.0	0.0	684679.0	-1.0	684679.0	0.0	B5HighSmallEDBlockProc	n/a	n/a	n/a	n/a	n/a	n/a	n/a	n/a	n/a	n/a	n/a	n/a	3.0	1.0	3.0	Run5BlockList	4	n/a	n/a	n/a	n/a	n/a	n/a	n/a	n/a	n/a	n/a	n/a	n/a	n/a	n/a	n/a	n/a	n/a	n/a	n/a	n/a	n/a	n/a	n/a	n/a	n/a	n/a	n/a	4.0	1.0	4.0	n/a	n/a	n/a	n/a	n/a	n/a	n/a	n/a	n/a	n/a	n/a	n/a	n/a	n/a	n/a	n/a	n/a	n/a	n/a	n/a	n/a	n/a	n/a	n/a	n/a	n/a	n/a	n/a	n/a	n/a	n/a	n/a	n/a	n/a	n/a	n/a	n/a	n/a	n/a	n/a	n/a	n/a	n/a	n/a	n/a	n/a	n/a	n/a	n/a	n/a	n/a	n/a	n/a	n/a	n/a	n/a	n/a	n/a	n/a	n/a	B5_04.jpg	500	0	678182	-1	678182	0	TrialProc1	B5HighSmallEDBlockList	2500	0	675683	0	675683	0	675683	2499	d	964	676647	64.97800000000001
68	2.5	000_R01_VA_allProc	26	1	"<?xml version=""1.0""?>\n<Clock xmlns:dt=""urn:schemas-microsoft-com:datatypes""><Description dt:dt=""string"">E-Prime Primary Realtime Clock</Description><StartTime><Timestamp dt:dt=""int"">0</Timestamp><DateUtc dt:dt=""string"">2018-07-23T20:14:27Z</DateUtc></StartTime><FrequencyChanges><FrequencyChange><Frequency dt:dt=""r8"">3020371</Frequency><Timestamp dt:dt=""r8"">76926863335</Timestamp><Current dt:dt=""r8"">0</Current><DateUtc dt:dt=""string"">2018-07-23T20:14:27Z</DateUtc></FrequencyChange></FrequencyChanges></Clock>\n"	000_R01_VA_allProc-26-1	60.022	1.0.0.178	1	-381941070	Professional	2.0.10.356	2.0.10.356	7/23/18	7/23/18 20:14	16:14:27	2.0.10.252	4	0	0	610706	9	610706	3999	-999999	787133	-3	770648	0	Run5Proc	4	1	4	RunList	3	HighSmallED	8000.0	0.0	684679.0	0.0	684679.0	-1.0	684679.0	0.0	B5HighSmallEDBlockProc	n/a	n/a	n/a	n/a	n/a	n/a	n/a	n/a	n/a	n/a	n/a	n/a	3.0	1.0	3.0	Run5BlockList	5	n/a	n/a	n/a	n/a	n/a	n/a	n/a	n/a	n/a	n/a	n/a	n/a	n/a	n/a	n/a	n/a	n/a	n/a	n/a	n/a	n/a	n/a	n/a	n/a	n/a	n/a	n/a	5.0	1.0	5.0	n/a	n/a	n/a	n/a	n/a	n/a	n/a	n/a	n/a	n/a	n/a	n/a	n/a	n/a	n/a	n/a	n/a	n/a	n/a	n/a	n/a	n/a	n/a	n/a	n/a	n/a	n/a	n/a	n/a	n/a	n/a	n/a	n/a	n/a	n/a	n/a	n/a	n/a	n/a	n/a	n/a	n/a	n/a	n/a	n/a	n/a	n/a	n/a	n/a	n/a	n/a	n/a	n/a	n/a	n/a	n/a	n/a	n/a	n/a	n/a	B5_05.jpg	500	0	681181	0	681181	0	TrialProc1	B5HighSmallEDBlockList	2500	1	678682	1	678682	-1	678681	2500	d	934	679615	67.976
71	2.5	000_R01_VA_allProc	26	1	"<?xml version=""1.0""?>\n<Clock xmlns:dt=""urn:schemas-microsoft-com:datatypes""><Description dt:dt=""string"">E-Prime Primary Realtime Clock</Description><StartTime><Timestamp dt:dt=""int"">0</Timestamp><DateUtc dt:dt=""string"">2018-07-23T20:14:27Z</DateUtc></StartTime><FrequencyChanges><FrequencyChange><Frequency dt:dt=""r8"">3020371</Frequency><Timestamp dt:dt=""r8"">76926863335</Timestamp><Current dt:dt=""r8"">0</Current><DateUtc dt:dt=""string"">2018-07-23T20:14:27Z</DateUtc></FrequencyChange></FrequencyChanges></Clock>\n"	000_R01_VA_allProc-26-1	60.022	1.0.0.178	1	-381941070	Professional	2.0.10.356	2.0.10.356	7/23/18	7/23/18 20:14	16:14:27	2.0.10.252	4	0	0	610706	9	610706	3999	-999999	787133	-3	770648	0	Run5Proc	4	1	4	RunList	3	HighSmallED	8000.0	0.0	684679.0	0.0	684679.0	-1.0	684679.0	0.0	B5HighSmallEDBlockProc	n/a	n/a	n/a	n/a	n/a	n/a	n/a	n/a	n/a	n/a	n/a	n/a	3.0	1.0	3.0	Run5BlockList	6	n/a	n/a	n/a	n/a	n/a	n/a	n/a	n/a	n/a	n/a	n/a	n/a	n/a	n/a	n/a	n/a	n/a	n/a	n/a	n/a	n/a	n/a	n/a	n/a	n/a	n/a	n/a	6.0	1.0	6.0	n/a	n/a	n/a	n/a	n/a	n/a	n/a	n/a	n/a	n/a	n/a	n/a	n/a	n/a	n/a	n/a	n/a	n/a	n/a	n/a	n/a	n/a	n/a	n/a	n/a	n/a	n/a	n/a	n/a	n/a	n/a	n/a	n/a	n/a	n/a	n/a	n/a	n/a	n/a	n/a	n/a	n/a	n/a	n/a	n/a	n/a	n/a	n/a	n/a	n/a	n/a	n/a	n/a	n/a	n/a	n/a	n/a	n/a	n/a	n/a	B5_06.jpg	500	0	684180	0	684180	0	TrialProc1	B5HighSmallEDBlockList	2500	0	681681	0	681680	-1	681680	2500	d	839	682519	70.975
82	2.5	000_R01_VA_allProc	26	1	"<?xml version=""1.0""?>\n<Clock xmlns:dt=""urn:schemas-microsoft-com:datatypes""><Description dt:dt=""string"">E-Prime Primary Realtime Clock</Description><StartTime><Timestamp dt:dt=""int"">0</Timestamp><DateUtc dt:dt=""string"">2018-07-23T20:14:27Z</DateUtc></StartTime><FrequencyChanges><FrequencyChange><Frequency dt:dt=""r8"">3020371</Frequency><Timestamp dt:dt=""r8"">76926863335</Timestamp><Current dt:dt=""r8"">0</Current><DateUtc dt:dt=""string"">2018-07-23T20:14:27Z</DateUtc></FrequencyChange></FrequencyChanges></Clock>\n"	000_R01_VA_allProc-26-1	60.022	1.0.0.178	1	-381941070	Professional	2.0.10.356	2.0.10.356	7/23/18	7/23/18 20:14	16:14:27	2.0.10.252	4	0	0	610706	9	610706	3999	-999999	787133	-3	770648	0	Run5Proc	4	1	4	RunList	4	OfficeLarge	8000.0	0.0	710670.0	0.0	710670.0	0.0	710670.0	0.0	E5OfficeLargeBlockProc	n/a	n/a	n/a	n/a	n/a	n/a	n/a	n/a	n/a	n/a	n/a	n/a	4.0	1.0	4.0	Run5BlockList	1	n/a	n/a	n/a	n/a	n/a	n/a	n/a	n/a	n/a	n/a	n/a	n/a	n/a	n/a	n/a	n/a	n/a	n/a	n/a	n/a	n/a	n/a	n/a	n/a	n/a	n/a	n/a	n/a	n/a	n/a	n/a	n/a	n/a	n/a	n/a	n/a	n/a	n/a	n/a	n/a	n/a	n/a	n/a	n/a	n/a	n/a	n/a	n/a	n/a	n/a	n/a	n/a	n/a	n/a	n/a	n/a	n/a	n/a	n/a	n/a	n/a	n/a	n/a	n/a	n/a	n/a	n/a	n/a	n/a	n/a	n/a	n/a	1.0	1.0	1.0	n/a	n/a	n/a	n/a	n/a	n/a	n/a	n/a	n/a	n/a	n/a	n/a	n/a	n/a	n/a	E5_01.jpg	500	0	695176	0	695176	0	TrialProc1	E5OfficeLargeBlockList	2500	1	692677	1	692677	-3	692676	2500	c	1211	693887	81.971
85	2.5	000_R01_VA_allProc	26	1	"<?xml version=""1.0""?>\n<Clock xmlns:dt=""urn:schemas-microsoft-com:datatypes""><Description dt:dt=""string"">E-Prime Primary Realtime Clock</Description><StartTime><Timestamp dt:dt=""int"">0</Timestamp><DateUtc dt:dt=""string"">2018-07-23T20:14:27Z</DateUtc></StartTime><FrequencyChanges><FrequencyChange><Frequency dt:dt=""r8"">3020371</Frequency><Timestamp dt:dt=""r8"">76926863335</Timestamp><Current dt:dt=""r8"">0</Current><DateUtc dt:dt=""string"">2018-07-23T20:14:27Z</DateUtc></FrequencyChange></FrequencyChanges></Clock>\n"	000_R01_VA_allProc-26-1	60.022	1.0.0.178	1	-381941070	Professional	2.0.10.356	2.0.10.356	7/23/18	7/23/18 20:14	16:14:27	2.0.10.252	4	0	0	610706	9	610706	3999	-999999	787133	-3	770648	0	Run5Proc	4	1	4	RunList	4	OfficeLarge	8000.0	0.0	710670.0	0.0	710670.0	0.0	710670.0	0.0	E5OfficeLargeBlockProc	n/a	n/a	n/a	n/a	n/a	n/a	n/a	n/a	n/a	n/a	n/a	n/a	4.0	1.0	4.0	Run5BlockList	2	n/a	n/a	n/a	n/a	n/a	n/a	n/a	n/a	n/a	n/a	n/a	n/a	n/a	n/a	n/a	n/a	n/a	n/a	n/a	n/a	n/a	n/a	n/a	n/a	n/a	n/a	n/a	n/a	n/a	n/a	n/a	n/a	n/a	n/a	n/a	n/a	n/a	n/a	n/a	n/a	n/a	n/a	n/a	n/a	n/a	n/a	n/a	n/a	n/a	n/a	n/a	n/a	n/a	n/a	n/a	n/a	n/a	n/a	n/a	n/a	n/a	n/a	n/a	n/a	n/a	n/a	n/a	n/a	n/a	n/a	n/a	n/a	2.0	1.0	2.0	n/a	n/a	n/a	n/a	n/a	n/a	n/a	n/a	n/a	n/a	n/a	n/a	n/a	n/a	n/a	E5_02.jpg	500	1	698175	-1	698174	0	TrialProc1	E5OfficeLargeBlockList	2500	0	695675	0	695675	-1	695675	2499	c	900	696575	84.97
88	2.5	000_R01_VA_allProc	26	1	"<?xml version=""1.0""?>\n<Clock xmlns:dt=""urn:schemas-microsoft-com:datatypes""><Description dt:dt=""string"">E-Prime Primary Realtime Clock</Description><StartTime><Timestamp dt:dt=""int"">0</Timestamp><DateUtc dt:dt=""string"">2018-07-23T20:14:27Z</DateUtc></StartTime><FrequencyChanges><FrequencyChange><Frequency dt:dt=""r8"">3020371</Frequency><Timestamp dt:dt=""r8"">76926863335</Timestamp><Current dt:dt=""r8"">0</Current><DateUtc dt:dt=""string"">2018-07-23T20:14:27Z</DateUtc></FrequencyChange></FrequencyChanges></Clock>\n"	000_R01_VA_allProc-26-1	60.022	1.0.0.178	1	-381941070	Professional	2.0.10.356	2.0.10.356	7/23/18	7/23/18 20:14	16:14:27	2.0.10.252	4	0	0	610706	9	610706	3999	-999999	787133	-3	770648	0	Run5Proc	4	1	4	RunList	4	OfficeLarge	8000.0	0.0	710670.0	0.0	710670.0	0.0	710670.0	0.0	E5OfficeLargeBlockProc	n/a	n/a	n/a	n/a	n/a	n/a	n/a	n/a	n/a	n/a	n/a	n/a	4.0	1.0	4.0	Run5BlockList	3	n/a	n/a	n/a	n/a	n/a	n/a	n/a	n/a	n/a	n/a	n/a	n/a	n/a	n/a	n/a	n/a	n/a	n/a	n/a	n/a	n/a	n/a	n/a	n/a	n/a	n/a	n/a	n/a	n/a	n/a	n/a	n/a	n/a	n/a	n/a	n/a	n/a	n/a	n/a	n/a	n/a	n/a	n/a	n/a	n/a	n/a	n/a	n/a	n/a	n/a	n/a	n/a	n/a	n/a	n/a	n/a	n/a	n/a	n/a	n/a	n/a	n/a	n/a	n/a	n/a	n/a	n/a	n/a	n/a	n/a	n/a	n/a	3.0	1.0	3.0	n/a	n/a	n/a	n/a	n/a	n/a	n/a	n/a	n/a	n/a	n/a	n/a	n/a	n/a	n/a	E5_03.jpg	500	0	701174	-1	701173	0	TrialProc1	E5OfficeLargeBlockList	2500	0	698674	0	698674	0	698674	2499	c	1117	699791	87.969
91	2.5	000_R01_VA_allProc	26	1	"<?xml version=""1.0""?>\n<Clock xmlns:dt=""urn:schemas-microsoft-com:datatypes""><Description dt:dt=""string"">E-Prime Primary Realtime Clock</Description><StartTime><Timestamp dt:dt=""int"">0</Timestamp><DateUtc dt:dt=""string"">2018-07-23T20:14:27Z</DateUtc></StartTime><FrequencyChanges><FrequencyChange><Frequency dt:dt=""r8"">3020371</Frequency><Timestamp dt:dt=""r8"">76926863335</Timestamp><Current dt:dt=""r8"">0</Current><DateUtc dt:dt=""string"">2018-07-23T20:14:27Z</DateUtc></FrequencyChange></FrequencyChanges></Clock>\n"	000_R01_VA_allProc-26-1	60.022	1.0.0.178	1	-381941070	Professional	2.0.10.356	2.0.10.356	7/23/18	7/23/18 20:14	16:14:27	2.0.10.252	4	0	0	610706	9	610706	3999	-999999	787133	-3	770648	0	Run5Proc	4	1	4	RunList	4	OfficeLarge	8000.0	0.0	710670.0	0.0	710670.0	0.0	710670.0	0.0	E5OfficeLargeBlockProc	n/a	n/a	n/a	n/a	n/a	n/a	n/a	n/a	n/a	n/a	n/a	n/a	4.0	1.0	4.0	Run5BlockList	4	n/a	n/a	n/a	n/a	n/a	n/a	n/a	n/a	n/a	n/a	n/a	n/a	n/a	n/a	n/a	n/a	n/a	n/a	n/a	n/a	n/a	n/a	n/a	n/a	n/a	n/a	n/a	n/a	n/a	n/a	n/a	n/a	n/a	n/a	n/a	n/a	n/a	n/a	n/a	n/a	n/a	n/a	n/a	n/a	n/a	n/a	n/a	n/a	n/a	n/a	n/a	n/a	n/a	n/a	n/a	n/a	n/a	n/a	n/a	n/a	n/a	n/a	n/a	n/a	n/a	n/a	n/a	n/a	n/a	n/a	n/a	n/a	4.0	1.0	4.0	n/a	n/a	n/a	n/a	n/a	n/a	n/a	n/a	n/a	n/a	n/a	n/a	n/a	n/a	n/a	E5_04.jpg	500	0	704172	-1	704172	0	TrialProc1	E5OfficeLargeBlockList	2500	0	701673	0	701673	0	701673	2499	c	1342	703015	90.968
94	2.5	000_R01_VA_allProc	26	1	"<?xml version=""1.0""?>\n<Clock xmlns:dt=""urn:schemas-microsoft-com:datatypes""><Description dt:dt=""string"">E-Prime Primary Realtime Clock</Description><StartTime><Timestamp dt:dt=""int"">0</Timestamp><DateUtc dt:dt=""string"">2018-07-23T20:14:27Z</DateUtc></StartTime><FrequencyChanges><FrequencyChange><Frequency dt:dt=""r8"">3020371</Frequency><Timestamp dt:dt=""r8"">76926863335</Timestamp><Current dt:dt=""r8"">0</Current><DateUtc dt:dt=""string"">2018-07-23T20:14:27Z</DateUtc></FrequencyChange></FrequencyChanges></Clock>\n"	000_R01_VA_allProc-26-1	60.022	1.0.0.178	1	-381941070	Professional	2.0.10.356	2.0.10.356	7/23/18	7/23/18 20:14	16:14:27	2.0.10.252	4	0	0	610706	9	610706	3999	-999999	787133	-3	770648	0	Run5Proc	4	1	4	RunList	4	OfficeLarge	8000.0	0.0	710670.0	0.0	710670.0	0.0	710670.0	0.0	E5OfficeLargeBlockProc	n/a	n/a	n/a	n/a	n/a	n/a	n/a	n/a	n/a	n/a	n/a	n/a	4.0	1.0	4.0	Run5BlockList	5	n/a	n/a	n/a	n/a	n/a	n/a	n/a	n/a	n/a	n/a	n/a	n/a	n/a	n/a	n/a	n/a	n/a	n/a	n/a	n/a	n/a	n/a	n/a	n/a	n/a	n/a	n/a	n/a	n/a	n/a	n/a	n/a	n/a	n/a	n/a	n/a	n/a	n/a	n/a	n/a	n/a	n/a	n/a	n/a	n/a	n/a	n/a	n/a	n/a	n/a	n/a	n/a	n/a	n/a	n/a	n/a	n/a	n/a	n/a	n/a	n/a	n/a	n/a	n/a	n/a	n/a	n/a	n/a	n/a	n/a	n/a	n/a	5.0	1.0	5.0	n/a	n/a	n/a	n/a	n/a	n/a	n/a	n/a	n/a	n/a	n/a	n/a	n/a	n/a	n/a	E5_05.jpg	500	0	707171	-1	707171	0	TrialProc1	E5OfficeLargeBlockList	2500	0	704672	0	704672	0	704672	2499	c	879	705551	93.967
97	2.5	000_R01_VA_allProc	26	1	"<?xml version=""1.0""?>\n<Clock xmlns:dt=""urn:schemas-microsoft-com:datatypes""><Description dt:dt=""string"">E-Prime Primary Realtime Clock</Description><StartTime><Timestamp dt:dt=""int"">0</Timestamp><DateUtc dt:dt=""string"">2018-07-23T20:14:27Z</DateUtc></StartTime><FrequencyChanges><FrequencyChange><Frequency dt:dt=""r8"">3020371</Frequency><Timestamp dt:dt=""r8"">76926863335</Timestamp><Current dt:dt=""r8"">0</Current><DateUtc dt:dt=""string"">2018-07-23T20:14:27Z</DateUtc></FrequencyChange></FrequencyChanges></Clock>\n"	000_R01_VA_allProc-26-1	60.022	1.0.0.178	1	-381941070	Professional	2.0.10.356	2.0.10.356	7/23/18	7/23/18 20:14	16:14:27	2.0.10.252	4	0	0	610706	9	610706	3999	-999999	787133	-3	770648	0	Run5Proc	4	1	4	RunList	4	OfficeLarge	8000.0	0.0	710670.0	0.0	710670.0	0.0	710670.0	0.0	E5OfficeLargeBlockProc	n/a	n/a	n/a	n/a	n/a	n/a	n/a	n/a	n/a	n/a	n/a	n/a	4.0	1.0	4.0	Run5BlockList	6	n/a	n/a	n/a	n/a	n/a	n/a	n/a	n/a	n/a	n/a	n/a	n/a	n/a	n/a	n/a	n/a	n/a	n/a	n/a	n/a	n/a	n/a	n/a	n/a	n/a	n/a	n/a	n/a	n/a	n/a	n/a	n/a	n/a	n/a	n/a	n/a	n/a	n/a	n/a	n/a	n/a	n/a	n/a	n/a	n/a	n/a	n/a	n/a	n/a	n/a	n/a	n/a	n/a	n/a	n/a	n/a	n/a	n/a	n/a	n/a	n/a	n/a	n/a	n/a	n/a	n/a	n/a	n/a	n/a	n/a	n/a	n/a	6.0	1.0	6.0	n/a	n/a	n/a	n/a	n/a	n/a	n/a	n/a	n/a	n/a	n/a	n/a	n/a	n/a	n/a	E5_06.jpg	500	0	710170	-1	710170	0	TrialProc1	E5OfficeLargeBlockList	2500	0	707671	0	707671	0	707671	2499	c	856	708527	96.966
108	2.5	000_R01_VA_allProc	26	1	"<?xml version=""1.0""?>\n<Clock xmlns:dt=""urn:schemas-microsoft-com:datatypes""><Description dt:dt=""string"">E-Prime Primary Realtime Clock</Description><StartTime><Timestamp dt:dt=""int"">0</Timestamp><DateUtc dt:dt=""string"">2018-07-23T20:14:27Z</DateUtc></StartTime><FrequencyChanges><FrequencyChange><Frequency dt:dt=""r8"">3020371</Frequency><Timestamp dt:dt=""r8"">76926863335</Timestamp><Current dt:dt=""r8"">0</Current><DateUtc dt:dt=""string"">2018-07-23T20:14:27Z</DateUtc></FrequencyChange></FrequencyChanges></Clock>\n"	000_R01_VA_allProc-26-1	60.022	1.0.0.178	1	-381941070	Professional	2.0.10.356	2.0.10.356	7/23/18	7/23/18 20:14	16:14:27	2.0.10.252	4	0	0	610706	9	610706	3999	-999999	787133	-3	770648	0	Run5Proc	4	1	4	RunList	5	HighLargeED	8000.0	0.0	736661.0	0.0	736661.0	0.0	736661.0	0.0	A5HighLargeEDBlockProc	n/a	n/a	n/a	n/a	n/a	n/a	n/a	n/a	n/a	n/a	n/a	n/a	5.0	1.0	5.0	Run5BlockList	1	n/a	n/a	n/a	n/a	n/a	n/a	n/a	n/a	n/a	n/a	n/a	n/a	1.0	1.0	1.0	n/a	n/a	n/a	n/a	n/a	n/a	n/a	n/a	n/a	n/a	n/a	n/a	n/a	n/a	n/a	n/a	n/a	n/a	n/a	n/a	n/a	n/a	n/a	n/a	n/a	n/a	n/a	n/a	n/a	n/a	n/a	n/a	n/a	n/a	n/a	n/a	n/a	n/a	n/a	n/a	n/a	n/a	n/a	n/a	n/a	n/a	n/a	n/a	n/a	n/a	n/a	n/a	n/a	n/a	n/a	n/a	n/a	n/a	n/a	n/a	n/a	n/a	n/a	n/a	n/a	n/a	n/a	n/a	n/a	n/a	n/a	n/a	n/a	n/a	n/a	A5_01.jpg	500	0	721166	-1	721166	0	TrialProc1	A5HighLargeEDBlockList	2500	0	718667	0	718667	-3	718667	2499	d	1348	720015	107.962
111	2.5	000_R01_VA_allProc	26	1	"<?xml version=""1.0""?>\n<Clock xmlns:dt=""urn:schemas-microsoft-com:datatypes""><Description dt:dt=""string"">E-Prime Primary Realtime Clock</Description><StartTime><Timestamp dt:dt=""int"">0</Timestamp><DateUtc dt:dt=""string"">2018-07-23T20:14:27Z</DateUtc></StartTime><FrequencyChanges><FrequencyChange><Frequency dt:dt=""r8"">3020371</Frequency><Timestamp dt:dt=""r8"">76926863335</Timestamp><Current dt:dt=""r8"">0</Current><DateUtc dt:dt=""string"">2018-07-23T20:14:27Z</DateUtc></FrequencyChange></FrequencyChanges></Clock>\n"	000_R01_VA_allProc-26-1	60.022	1.0.0.178	1	-381941070	Professional	2.0.10.356	2.0.10.356	7/23/18	7/23/18 20:14	16:14:27	2.0.10.252	4	0	0	610706	9	610706	3999	-999999	787133	-3	770648	0	Run5Proc	4	1	4	RunList	5	HighLargeED	8000.0	0.0	736661.0	0.0	736661.0	0.0	736661.0	0.0	A5HighLargeEDBlockProc	n/a	n/a	n/a	n/a	n/a	n/a	n/a	n/a	n/a	n/a	n/a	n/a	5.0	1.0	5.0	Run5BlockList	2	n/a	n/a	n/a	n/a	n/a	n/a	n/a	n/a	n/a	n/a	n/a	n/a	2.0	1.0	2.0	n/a	n/a	n/a	n/a	n/a	n/a	n/a	n/a	n/a	n/a	n/a	n/a	n/a	n/a	n/a	n/a	n/a	n/a	n/a	n/a	n/a	n/a	n/a	n/a	n/a	n/a	n/a	n/a	n/a	n/a	n/a	n/a	n/a	n/a	n/a	n/a	n/a	n/a	n/a	n/a	n/a	n/a	n/a	n/a	n/a	n/a	n/a	n/a	n/a	n/a	n/a	n/a	n/a	n/a	n/a	n/a	n/a	n/a	n/a	n/a	n/a	n/a	n/a	n/a	n/a	n/a	n/a	n/a	n/a	n/a	n/a	n/a	n/a	n/a	n/a	A5_02.jpg	500	0	724165	-1	724165	0	TrialProc1	A5HighLargeEDBlockList	2500	0	721666	0	721666	0	721666	2499	d	637	722303	110.961
114	2.5	000_R01_VA_allProc	26	1	"<?xml version=""1.0""?>\n<Clock xmlns:dt=""urn:schemas-microsoft-com:datatypes""><Description dt:dt=""string"">E-Prime Primary Realtime Clock</Description><StartTime><Timestamp dt:dt=""int"">0</Timestamp><DateUtc dt:dt=""string"">2018-07-23T20:14:27Z</DateUtc></StartTime><FrequencyChanges><FrequencyChange><Frequency dt:dt=""r8"">3020371</Frequency><Timestamp dt:dt=""r8"">76926863335</Timestamp><Current dt:dt=""r8"">0</Current><DateUtc dt:dt=""string"">2018-07-23T20:14:27Z</DateUtc></FrequencyChange></FrequencyChanges></Clock>\n"	000_R01_VA_allProc-26-1	60.022	1.0.0.178	1	-381941070	Professional	2.0.10.356	2.0.10.356	7/23/18	7/23/18 20:14	16:14:27	2.0.10.252	4	0	0	610706	9	610706	3999	-999999	787133	-3	770648	0	Run5Proc	4	1	4	RunList	5	HighLargeED	8000.0	0.0	736661.0	0.0	736661.0	0.0	736661.0	0.0	A5HighLargeEDBlockProc	n/a	n/a	n/a	n/a	n/a	n/a	n/a	n/a	n/a	n/a	n/a	n/a	5.0	1.0	5.0	Run5BlockList	3	n/a	n/a	n/a	n/a	n/a	n/a	n/a	n/a	n/a	n/a	n/a	n/a	3.0	1.0	3.0	n/a	n/a	n/a	n/a	n/a	n/a	n/a	n/a	n/a	n/a	n/a	n/a	n/a	n/a	n/a	n/a	n/a	n/a	n/a	n/a	n/a	n/a	n/a	n/a	n/a	n/a	n/a	n/a	n/a	n/a	n/a	n/a	n/a	n/a	n/a	n/a	n/a	n/a	n/a	n/a	n/a	n/a	n/a	n/a	n/a	n/a	n/a	n/a	n/a	n/a	n/a	n/a	n/a	n/a	n/a	n/a	n/a	n/a	n/a	n/a	n/a	n/a	n/a	n/a	n/a	n/a	n/a	n/a	n/a	n/a	n/a	n/a	n/a	n/a	n/a	A5_03.jpg	500	0	727164	-1	727164	0	TrialProc1	A5HighLargeEDBlockList	2500	0	724665	0	724665	0	724665	2499	d	734	725399	113.96
117	2.5	000_R01_VA_allProc	26	1	"<?xml version=""1.0""?>\n<Clock xmlns:dt=""urn:schemas-microsoft-com:datatypes""><Description dt:dt=""string"">E-Prime Primary Realtime Clock</Description><StartTime><Timestamp dt:dt=""int"">0</Timestamp><DateUtc dt:dt=""string"">2018-07-23T20:14:27Z</DateUtc></StartTime><FrequencyChanges><FrequencyChange><Frequency dt:dt=""r8"">3020371</Frequency><Timestamp dt:dt=""r8"">76926863335</Timestamp><Current dt:dt=""r8"">0</Current><DateUtc dt:dt=""string"">2018-07-23T20:14:27Z</DateUtc></FrequencyChange></FrequencyChanges></Clock>\n"	000_R01_VA_allProc-26-1	60.022	1.0.0.178	1	-381941070	Professional	2.0.10.356	2.0.10.356	7/23/18	7/23/18 20:14	16:14:27	2.0.10.252	4	0	0	610706	9	610706	3999	-999999	787133	-3	770648	0	Run5Proc	4	1	4	RunList	5	HighLargeED	8000.0	0.0	736661.0	0.0	736661.0	0.0	736661.0	0.0	A5HighLargeEDBlockProc	n/a	n/a	n/a	n/a	n/a	n/a	n/a	n/a	n/a	n/a	n/a	n/a	5.0	1.0	5.0	Run5BlockList	4	n/a	n/a	n/a	n/a	n/a	n/a	n/a	n/a	n/a	n/a	n/a	n/a	4.0	1.0	4.0	n/a	n/a	n/a	n/a	n/a	n/a	n/a	n/a	n/a	n/a	n/a	n/a	n/a	n/a	n/a	n/a	n/a	n/a	n/a	n/a	n/a	n/a	n/a	n/a	n/a	n/a	n/a	n/a	n/a	n/a	n/a	n/a	n/a	n/a	n/a	n/a	n/a	n/a	n/a	n/a	n/a	n/a	n/a	n/a	n/a	n/a	n/a	n/a	n/a	n/a	n/a	n/a	n/a	n/a	n/a	n/a	n/a	n/a	n/a	n/a	n/a	n/a	n/a	n/a	n/a	n/a	n/a	n/a	n/a	n/a	n/a	n/a	n/a	n/a	n/a	A5_04.jpg	500	0	730163	-1	730163	0	TrialProc1	A5HighLargeEDBlockList	2500	0	727664	0	727664	0	727664	2499	d	790	728454	116.959
120	2.5	000_R01_VA_allProc	26	1	"<?xml version=""1.0""?>\n<Clock xmlns:dt=""urn:schemas-microsoft-com:datatypes""><Description dt:dt=""string"">E-Prime Primary Realtime Clock</Description><StartTime><Timestamp dt:dt=""int"">0</Timestamp><DateUtc dt:dt=""string"">2018-07-23T20:14:27Z</DateUtc></StartTime><FrequencyChanges><FrequencyChange><Frequency dt:dt=""r8"">3020371</Frequency><Timestamp dt:dt=""r8"">76926863335</Timestamp><Current dt:dt=""r8"">0</Current><DateUtc dt:dt=""string"">2018-07-23T20:14:27Z</DateUtc></FrequencyChange></FrequencyChanges></Clock>\n"	000_R01_VA_allProc-26-1	60.022	1.0.0.178	1	-381941070	Professional	2.0.10.356	2.0.10.356	7/23/18	7/23/18 20:14	16:14:27	2.0.10.252	4	0	0	610706	9	610706	3999	-999999	787133	-3	770648	0	Run5Proc	4	1	4	RunList	5	HighLargeED	8000.0	0.0	736661.0	0.0	736661.0	0.0	736661.0	0.0	A5HighLargeEDBlockProc	n/a	n/a	n/a	n/a	n/a	n/a	n/a	n/a	n/a	n/a	n/a	n/a	5.0	1.0	5.0	Run5BlockList	5	n/a	n/a	n/a	n/a	n/a	n/a	n/a	n/a	n/a	n/a	n/a	n/a	5.0	1.0	5.0	n/a	n/a	n/a	n/a	n/a	n/a	n/a	n/a	n/a	n/a	n/a	n/a	n/a	n/a	n/a	n/a	n/a	n/a	n/a	n/a	n/a	n/a	n/a	n/a	n/a	n/a	n/a	n/a	n/a	n/a	n/a	n/a	n/a	n/a	n/a	n/a	n/a	n/a	n/a	n/a	n/a	n/a	n/a	n/a	n/a	n/a	n/a	n/a	n/a	n/a	n/a	n/a	n/a	n/a	n/a	n/a	n/a	n/a	n/a	n/a	n/a	n/a	n/a	n/a	n/a	n/a	n/a	n/a	n/a	n/a	n/a	n/a	n/a	n/a	n/a	A5_05.jpg	500	0	733162	-1	733162	0	TrialProc1	A5HighLargeEDBlockList	2500	0	730663	0	730663	0	730663	2499	d	751	731414	119.958
123	2.5	000_R01_VA_allProc	26	1	"<?xml version=""1.0""?>\n<Clock xmlns:dt=""urn:schemas-microsoft-com:datatypes""><Description dt:dt=""string"">E-Prime Primary Realtime Clock</Description><StartTime><Timestamp dt:dt=""int"">0</Timestamp><DateUtc dt:dt=""string"">2018-07-23T20:14:27Z</DateUtc></StartTime><FrequencyChanges><FrequencyChange><Frequency dt:dt=""r8"">3020371</Frequency><Timestamp dt:dt=""r8"">76926863335</Timestamp><Current dt:dt=""r8"">0</Current><DateUtc dt:dt=""string"">2018-07-23T20:14:27Z</DateUtc></FrequencyChange></FrequencyChanges></Clock>\n"	000_R01_VA_allProc-26-1	60.022	1.0.0.178	1	-381941070	Professional	2.0.10.356	2.0.10.356	7/23/18	7/23/18 20:14	16:14:27	2.0.10.252	4	0	0	610706	9	610706	3999	-999999	787133	-3	770648	0	Run5Proc	4	1	4	RunList	5	HighLargeED	8000.0	0.0	736661.0	0.0	736661.0	0.0	736661.0	0.0	A5HighLargeEDBlockProc	n/a	n/a	n/a	n/a	n/a	n/a	n/a	n/a	n/a	n/a	n/a	n/a	5.0	1.0	5.0	Run5BlockList	6	n/a	n/a	n/a	n/a	n/a	n/a	n/a	n/a	n/a	n/a	n/a	n/a	6.0	1.0	6.0	n/a	n/a	n/a	n/a	n/a	n/a	n/a	n/a	n/a	n/a	n/a	n/a	n/a	n/a	n/a	n/a	n/a	n/a	n/a	n/a	n/a	n/a	n/a	n/a	n/a	n/a	n/a	n/a	n/a	n/a	n/a	n/a	n/a	n/a	n/a	n/a	n/a	n/a	n/a	n/a	n/a	n/a	n/a	n/a	n/a	n/a	n/a	n/a	n/a	n/a	n/a	n/a	n/a	n/a	n/a	n/a	n/a	n/a	n/a	n/a	n/a	n/a	n/a	n/a	n/a	n/a	n/a	n/a	n/a	n/a	n/a	n/a	n/a	n/a	n/a	A5_06.jpg	500	0	736161	-1	736161	0	TrialProc1	A5HighLargeEDBlockList	2500	0	733662	0	733662	0	733662	2499	d	688	734350	122.957
134	2.5	000_R01_VA_allProc	26	1	"<?xml version=""1.0""?>\n<Clock xmlns:dt=""urn:schemas-microsoft-com:datatypes""><Description dt:dt=""string"">E-Prime Primary Realtime Clock</Description><StartTime><Timestamp dt:dt=""int"">0</Timestamp><DateUtc dt:dt=""string"">2018-07-23T20:14:27Z</DateUtc></StartTime><FrequencyChanges><FrequencyChange><Frequency dt:dt=""r8"">3020371</Frequency><Timestamp dt:dt=""r8"">76926863335</Timestamp><Current dt:dt=""r8"">0</Current><DateUtc dt:dt=""string"">2018-07-23T20:14:27Z</DateUtc></FrequencyChange></FrequencyChanges></Clock>\n"	000_R01_VA_allProc-26-1	60.022	1.0.0.178	1	-381941070	Professional	2.0.10.356	2.0.10.356	7/23/18	7/23/18 20:14	16:14:27	2.0.10.252	4	0	0	610706	9	610706	3999	-999999	787133	-3	770648	0	Run5Proc	4	1	4	RunList	6	LowSmallED	8000.0	0.0	762651.0	0.0	762651.0	0.0	762651.0	0.0	D5LowSmallEDBlockProc	n/a	n/a	n/a	n/a	n/a	n/a	n/a	n/a	n/a	n/a	n/a	n/a	6.0	1.0	6.0	Run5BlockList	1	n/a	n/a	n/a	n/a	n/a	n/a	n/a	n/a	n/a	n/a	n/a	n/a	n/a	n/a	n/a	n/a	n/a	n/a	n/a	n/a	n/a	n/a	n/a	n/a	n/a	n/a	n/a	n/a	n/a	n/a	n/a	n/a	n/a	n/a	n/a	n/a	n/a	n/a	n/a	n/a	n/a	n/a	n/a	n/a	n/a	n/a	n/a	n/a	n/a	n/a	n/a	n/a	n/a	n/a	n/a	n/a	n/a	1.0	1.0	1.0	n/a	n/a	n/a	n/a	n/a	n/a	n/a	n/a	n/a	n/a	n/a	n/a	n/a	n/a	n/a	n/a	n/a	n/a	n/a	n/a	n/a	n/a	n/a	n/a	n/a	n/a	n/a	n/a	n/a	n/a	D5_01.jpg	500	0	747157	-1	747157	0	TrialProc1	D5LowSmallEDBlockList	2500	0	744658	0	744658	-3	744658	2499	d	900	745558	133.953
137	2.5	000_R01_VA_allProc	26	1	"<?xml version=""1.0""?>\n<Clock xmlns:dt=""urn:schemas-microsoft-com:datatypes""><Description dt:dt=""string"">E-Prime Primary Realtime Clock</Description><StartTime><Timestamp dt:dt=""int"">0</Timestamp><DateUtc dt:dt=""string"">2018-07-23T20:14:27Z</DateUtc></StartTime><FrequencyChanges><FrequencyChange><Frequency dt:dt=""r8"">3020371</Frequency><Timestamp dt:dt=""r8"">76926863335</Timestamp><Current dt:dt=""r8"">0</Current><DateUtc dt:dt=""string"">2018-07-23T20:14:27Z</DateUtc></FrequencyChange></FrequencyChanges></Clock>\n"	000_R01_VA_allProc-26-1	60.022	1.0.0.178	1	-381941070	Professional	2.0.10.356	2.0.10.356	7/23/18	7/23/18 20:14	16:14:27	2.0.10.252	4	0	0	610706	9	610706	3999	-999999	787133	-3	770648	0	Run5Proc	4	1	4	RunList	6	LowSmallED	8000.0	0.0	762651.0	0.0	762651.0	0.0	762651.0	0.0	D5LowSmallEDBlockProc	n/a	n/a	n/a	n/a	n/a	n/a	n/a	n/a	n/a	n/a	n/a	n/a	6.0	1.0	6.0	Run5BlockList	2	n/a	n/a	n/a	n/a	n/a	n/a	n/a	n/a	n/a	n/a	n/a	n/a	n/a	n/a	n/a	n/a	n/a	n/a	n/a	n/a	n/a	n/a	n/a	n/a	n/a	n/a	n/a	n/a	n/a	n/a	n/a	n/a	n/a	n/a	n/a	n/a	n/a	n/a	n/a	n/a	n/a	n/a	n/a	n/a	n/a	n/a	n/a	n/a	n/a	n/a	n/a	n/a	n/a	n/a	n/a	n/a	n/a	2.0	1.0	2.0	n/a	n/a	n/a	n/a	n/a	n/a	n/a	n/a	n/a	n/a	n/a	n/a	n/a	n/a	n/a	n/a	n/a	n/a	n/a	n/a	n/a	n/a	n/a	n/a	n/a	n/a	n/a	n/a	n/a	n/a	D5_02.jpg	500	0	750156	-1	750156	0	TrialProc1	D5LowSmallEDBlockList	2500	0	747657	0	747657	0	747657	2499	d	1101	748758	136.952
140	2.5	000_R01_VA_allProc	26	1	"<?xml version=""1.0""?>\n<Clock xmlns:dt=""urn:schemas-microsoft-com:datatypes""><Description dt:dt=""string"">E-Prime Primary Realtime Clock</Description><StartTime><Timestamp dt:dt=""int"">0</Timestamp><DateUtc dt:dt=""string"">2018-07-23T20:14:27Z</DateUtc></StartTime><FrequencyChanges><FrequencyChange><Frequency dt:dt=""r8"">3020371</Frequency><Timestamp dt:dt=""r8"">76926863335</Timestamp><Current dt:dt=""r8"">0</Current><DateUtc dt:dt=""string"">2018-07-23T20:14:27Z</DateUtc></FrequencyChange></FrequencyChanges></Clock>\n"	000_R01_VA_allProc-26-1	60.022	1.0.0.178	1	-381941070	Professional	2.0.10.356	2.0.10.356	7/23/18	7/23/18 20:14	16:14:27	2.0.10.252	4	0	0	610706	9	610706	3999	-999999	787133	-3	770648	0	Run5Proc	4	1	4	RunList	6	LowSmallED	8000.0	0.0	762651.0	0.0	762651.0	0.0	762651.0	0.0	D5LowSmallEDBlockProc	n/a	n/a	n/a	n/a	n/a	n/a	n/a	n/a	n/a	n/a	n/a	n/a	6.0	1.0	6.0	Run5BlockList	3	n/a	n/a	n/a	n/a	n/a	n/a	n/a	n/a	n/a	n/a	n/a	n/a	n/a	n/a	n/a	n/a	n/a	n/a	n/a	n/a	n/a	n/a	n/a	n/a	n/a	n/a	n/a	n/a	n/a	n/a	n/a	n/a	n/a	n/a	n/a	n/a	n/a	n/a	n/a	n/a	n/a	n/a	n/a	n/a	n/a	n/a	n/a	n/a	n/a	n/a	n/a	n/a	n/a	n/a	n/a	n/a	n/a	3.0	1.0	3.0	n/a	n/a	n/a	n/a	n/a	n/a	n/a	n/a	n/a	n/a	n/a	n/a	n/a	n/a	n/a	n/a	n/a	n/a	n/a	n/a	n/a	n/a	n/a	n/a	n/a	n/a	n/a	n/a	n/a	n/a	D5_03.jpg	500	0	753155	-1	753155	0	TrialProc1	D5LowSmallEDBlockList	2500	0	750656	0	750656	0	750656	2499	d	926	751582	139.951
143	2.5	000_R01_VA_allProc	26	1	"<?xml version=""1.0""?>\n<Clock xmlns:dt=""urn:schemas-microsoft-com:datatypes""><Description dt:dt=""string"">E-Prime Primary Realtime Clock</Description><StartTime><Timestamp dt:dt=""int"">0</Timestamp><DateUtc dt:dt=""string"">2018-07-23T20:14:27Z</DateUtc></StartTime><FrequencyChanges><FrequencyChange><Frequency dt:dt=""r8"">3020371</Frequency><Timestamp dt:dt=""r8"">76926863335</Timestamp><Current dt:dt=""r8"">0</Current><DateUtc dt:dt=""string"">2018-07-23T20:14:27Z</DateUtc></FrequencyChange></FrequencyChanges></Clock>\n"	000_R01_VA_allProc-26-1	60.022	1.0.0.178	1	-381941070	Professional	2.0.10.356	2.0.10.356	7/23/18	7/23/18 20:14	16:14:27	2.0.10.252	4	0	0	610706	9	610706	3999	-999999	787133	-3	770648	0	Run5Proc	4	1	4	RunList	6	LowSmallED	8000.0	0.0	762651.0	0.0	762651.0	0.0	762651.0	0.0	D5LowSmallEDBlockProc	n/a	n/a	n/a	n/a	n/a	n/a	n/a	n/a	n/a	n/a	n/a	n/a	6.0	1.0	6.0	Run5BlockList	4	n/a	n/a	n/a	n/a	n/a	n/a	n/a	n/a	n/a	n/a	n/a	n/a	n/a	n/a	n/a	n/a	n/a	n/a	n/a	n/a	n/a	n/a	n/a	n/a	n/a	n/a	n/a	n/a	n/a	n/a	n/a	n/a	n/a	n/a	n/a	n/a	n/a	n/a	n/a	n/a	n/a	n/a	n/a	n/a	n/a	n/a	n/a	n/a	n/a	n/a	n/a	n/a	n/a	n/a	n/a	n/a	n/a	4.0	1.0	4.0	n/a	n/a	n/a	n/a	n/a	n/a	n/a	n/a	n/a	n/a	n/a	n/a	n/a	n/a	n/a	n/a	n/a	n/a	n/a	n/a	n/a	n/a	n/a	n/a	n/a	n/a	n/a	n/a	n/a	n/a	D5_04.jpg	500	0	756154	-1	756154	0	TrialProc1	D5LowSmallEDBlockList	2500	0	753655	0	753655	0	753655	2499	d	1103	754758	142.95
146	2.5	000_R01_VA_allProc	26	1	"<?xml version=""1.0""?>\n<Clock xmlns:dt=""urn:schemas-microsoft-com:datatypes""><Description dt:dt=""string"">E-Prime Primary Realtime Clock</Description><StartTime><Timestamp dt:dt=""int"">0</Timestamp><DateUtc dt:dt=""string"">2018-07-23T20:14:27Z</DateUtc></StartTime><FrequencyChanges><FrequencyChange><Frequency dt:dt=""r8"">3020371</Frequency><Timestamp dt:dt=""r8"">76926863335</Timestamp><Current dt:dt=""r8"">0</Current><DateUtc dt:dt=""string"">2018-07-23T20:14:27Z</DateUtc></FrequencyChange></FrequencyChanges></Clock>\n"	000_R01_VA_allProc-26-1	60.022	1.0.0.178	1	-381941070	Professional	2.0.10.356	2.0.10.356	7/23/18	7/23/18 20:14	16:14:27	2.0.10.252	4	0	0	610706	9	610706	3999	-999999	787133	-3	770648	0	Run5Proc	4	1	4	RunList	6	LowSmallED	8000.0	0.0	762651.0	0.0	762651.0	0.0	762651.0	0.0	D5LowSmallEDBlockProc	n/a	n/a	n/a	n/a	n/a	n/a	n/a	n/a	n/a	n/a	n/a	n/a	6.0	1.0	6.0	Run5BlockList	5	n/a	n/a	n/a	n/a	n/a	n/a	n/a	n/a	n/a	n/a	n/a	n/a	n/a	n/a	n/a	n/a	n/a	n/a	n/a	n/a	n/a	n/a	n/a	n/a	n/a	n/a	n/a	n/a	n/a	n/a	n/a	n/a	n/a	n/a	n/a	n/a	n/a	n/a	n/a	n/a	n/a	n/a	n/a	n/a	n/a	n/a	n/a	n/a	n/a	n/a	n/a	n/a	n/a	n/a	n/a	n/a	n/a	5.0	1.0	5.0	n/a	n/a	n/a	n/a	n/a	n/a	n/a	n/a	n/a	n/a	n/a	n/a	n/a	n/a	n/a	n/a	n/a	n/a	n/a	n/a	n/a	n/a	n/a	n/a	n/a	n/a	n/a	n/a	n/a	n/a	D5_05.jpg	500	0	759153	0	759153	0	TrialProc1	D5LowSmallEDBlockList	2500	1	756654	1	756654	-1	756653	2500	d	1105	757758	145.948
149	2.5	000_R01_VA_allProc	26	1	"<?xml version=""1.0""?>\n<Clock xmlns:dt=""urn:schemas-microsoft-com:datatypes""><Description dt:dt=""string"">E-Prime Primary Realtime Clock</Description><StartTime><Timestamp dt:dt=""int"">0</Timestamp><DateUtc dt:dt=""string"">2018-07-23T20:14:27Z</DateUtc></StartTime><FrequencyChanges><FrequencyChange><Frequency dt:dt=""r8"">3020371</Frequency><Timestamp dt:dt=""r8"">76926863335</Timestamp><Current dt:dt=""r8"">0</Current><DateUtc dt:dt=""string"">2018-07-23T20:14:27Z</DateUtc></FrequencyChange></FrequencyChanges></Clock>\n"	000_R01_VA_allProc-26-1	60.022	1.0.0.178	1	-381941070	Professional	2.0.10.356	2.0.10.356	7/23/18	7/23/18 20:14	16:14:27	2.0.10.252	4	0	0	610706	9	610706	3999	-999999	787133	-3	770648	0	Run5Proc	4	1	4	RunList	6	LowSmallED	8000.0	0.0	762651.0	0.0	762651.0	0.0	762651.0	0.0	D5LowSmallEDBlockProc	n/a	n/a	n/a	n/a	n/a	n/a	n/a	n/a	n/a	n/a	n/a	n/a	6.0	1.0	6.0	Run5BlockList	6	n/a	n/a	n/a	n/a	n/a	n/a	n/a	n/a	n/a	n/a	n/a	n/a	n/a	n/a	n/a	n/a	n/a	n/a	n/a	n/a	n/a	n/a	n/a	n/a	n/a	n/a	n/a	n/a	n/a	n/a	n/a	n/a	n/a	n/a	n/a	n/a	n/a	n/a	n/a	n/a	n/a	n/a	n/a	n/a	n/a	n/a	n/a	n/a	n/a	n/a	n/a	n/a	n/a	n/a	n/a	n/a	n/a	6.0	1.0	6.0	n/a	n/a	n/a	n/a	n/a	n/a	n/a	n/a	n/a	n/a	n/a	n/a	n/a	n/a	n/a	n/a	n/a	n/a	n/a	n/a	n/a	n/a	n/a	n/a	n/a	n/a	n/a	n/a	n/a	n/a	D5_06.jpg	500	1	762152	-1	762151	0	TrialProc1	D5LowSmallEDBlockList	2500	0	759652	0	759652	-1	759652	2499	d	690	760342	148.947
