onset	duration	experiment_name	sub	ses	clock_information	datafile_basename	display_refreshrate	experiment_version	group	randomseed	runtime_capabilities	runtime_version	runtimeversionexpected	session_date	session_start_date_time_utc	session_time	studio_version	block	fixation2trs_durationerror	fixation2trs_offsetdelay	fixation2trs_offsettime	fixation2trs_onsetdelay	fixation2trs_onsettime	fixation2trs_onsettoonsettime	goodwork_durationerror	goodwork_finishtime	goodwork_onsetdelay	goodwork_onsettime	goodwork_onsettoonsettime	procedure_block	runlist	runlist_cycle	runlist_sample	running_block	trial	condition	interblockinterval_duration	interblockinterval_durationerror	interblockinterval_finishtime	interblockinterval_offsetdelay	interblockinterval_offsettime	interblockinterval_onsetdelay	interblockinterval_onsettime	interblockinterval_onsettoonsettime	procedure_trial	run1blocklist	run1blocklist_cycle	run1blocklist_sample	run2blocklist	run2blocklist_cycle	run2blocklist_sample	run3blocklist	run3blocklist_cycle	run3blocklist_sample	run4blocklist	run4blocklist_cycle	run4blocklist_sample	run5blocklist	run5blocklist_cycle	run5blocklist_sample	running_trial	subtrial	a1highlargeedblocklist	a1highlargeedblocklist_cycle	a1highlargeedblocklist_sample	a2highlargeedblocklist	a2highlargeedblocklist_cycle	a2highlargeedblocklist_sample	a3highlargeedblocklist	a3highlargeedblocklist_cycle	a3highlargeedblocklist_sample	a4highlargeedblocklist	a4highlargeedblocklist_cycle	a4highlargeedblocklist_sample	a5highlargeedblocklist	a5highlargeedblocklist_cycle	a5highlargeedblocklist_sample	b1highsmalledblocklist	b1highsmalledblocklist_cycle	b1highsmalledblocklist_sample	b2highsmalledblocklist	b2highsmalledblocklist_cycle	b2highsmalledblocklist_sample	b3highsmalledblocklist	b3highsmalledblocklist_cycle	b3highsmalledblocklist_sample	b4highsmalledblocklist	b4highsmalledblocklist_cycle	b4highsmalledblocklist_sample	b5highsmalledblocklist	b5highsmalledblocklist_cycle	b5highsmalledblocklist_sample	c1lowlargeedblocklist	c1lowlargeedblocklist_cycle	c1lowlargeedblocklist_sample	c2lowlargeedblocklist	c2lowlargeedblocklist_cycle	c2lowlargeedblocklist_sample	c3lowlargeedblocklist	c3lowlargeedblocklist_cycle	c3lowlargeedblocklist_sample	c4lowlargeedblocklist	c4lowlargeedblocklist_cycle	c4lowlargeedblocklist_sample	c5lowlargeedblocklist	c5lowlargeedblocklist_cycle	c5lowlargeedblocklist_sample	d1lowsmalledblocklist	d1lowsmalledblocklist_cycle	d1lowsmalledblocklist_sample	d2highlargeedblocklist	d2highlargeedblocklist_cycle	d2highlargeedblocklist_sample	d3lowsmalledblocklist	d3lowsmalledblocklist_cycle	d3lowsmalledblocklist_sample	d4lowsmalledblocklist	d4lowsmalledblocklist_cycle	d4lowsmalledblocklist_sample	d5lowsmalledblocklist	d5lowsmalledblocklist_cycle	d5lowsmalledblocklist_sample	e1officelargeblocklist	e1officelargeblocklist_cycle	e1officelargeblocklist_sample	e2officelargeblocklist	e2officelargeblocklist_cycle	e2officelargeblocklist_sample	e3officelargeblocklist	e3officelargeblocklist_cycle	e3officelargeblocklist_sample	e4officelargeblocklist	e4officelargeblocklist_cycle	e4officelargeblocklist_sample	e5officelargeblocklist	e5officelargeblocklist_cycle	e5officelargeblocklist_sample	f1officesmallblocklist	f1officesmallblocklist_cycle	f1officesmallblocklist_sample	f2officesmallblocklist	f2officesmallblocklist_cycle	f2officesmallblocklist_sample	f3officesmallblocklist	f3officesmallblocklist_cycle	f3officesmallblocklist_sample	f4officesmallblocklist	f4officesmallblocklist_cycle	f4officesmallblocklist_sample	f5officesmallblocklist	f5officesmallblocklist_cycle	f5officesmallblocklist_sample	filename	isi_duration	isi_durationerror	isi_finishtime	isi_onsetdelay	isi_onsettime	isi_onsettoonsettime	procedure_subtrial	running_subtrial	stimslide_duration	stimslide_durationerror	stimslide_finishtime	stimslide_offsetdelay	stimslide_offsettime	stimslide_onsetdelay	stimslide_onsettime	stimslide_onsettoonsettime	stimslide_resp	stimslide_rt	stimslide_rttime	onset_unrounded
4	2.5	000_R01_VA_allProc	36	1	"<?xml version=""1.0""?>\n<Clock xmlns:dt=""urn:schemas-microsoft-com:datatypes""><Description dt:dt=""string"">E-Prime Primary Realtime Clock</Description><StartTime><Timestamp dt:dt=""int"">0</Timestamp><DateUtc dt:dt=""string"">2018-08-01T17:15:49Z</DateUtc></StartTime><FrequencyChanges><FrequencyChange><Frequency dt:dt=""r8"">3020400</Frequency><Timestamp dt:dt=""r8"">198874994962</Timestamp><Current dt:dt=""r8"">0</Current><DateUtc dt:dt=""string"">2018-08-01T17:15:49Z</DateUtc></FrequencyChange></FrequencyChanges></Clock>\n"	000_R01_VA_allProc-36-1	60.022	1.0.0.178	1	1307110094	Professional	2.0.10.356	2.0.10.356	08-01-2018	8/1/2018 5:15:50 PM	13:15:50	2.0.10.252	2	0	0	263295	23	263295	3998	-999999	445432	-3	423236	0	Run3Proc	2	1	2	RunList	1	LowSmallED	8000.0	0.0	285287.0	0.0	285287.0	0.0	285287.0	0.0	D3LowSmallEDBlockProc	n/a	n/a	n/a	n/a	n/a	n/a	1.0	1.0	1.0	n/a	n/a	n/a	n/a	n/a	n/a	Run3BlockList	1	n/a	n/a	n/a	n/a	n/a	n/a	n/a	n/a	n/a	n/a	n/a	n/a	n/a	n/a	n/a	n/a	n/a	n/a	n/a	n/a	n/a	n/a	n/a	n/a	n/a	n/a	n/a	n/a	n/a	n/a	n/a	n/a	n/a	n/a	n/a	n/a	n/a	n/a	n/a	n/a	n/a	n/a	n/a	n/a	n/a	n/a	n/a	n/a	n/a	n/a	n/a	1.0	1.0	1.0	n/a	n/a	n/a	n/a	n/a	n/a	n/a	n/a	n/a	n/a	n/a	n/a	n/a	n/a	n/a	n/a	n/a	n/a	n/a	n/a	n/a	n/a	n/a	n/a	n/a	n/a	n/a	n/a	n/a	n/a	n/a	n/a	n/a	n/a	n/a	n/a	D3_01.jpg	500	1	269793	-1	269792	0	TrialProc1	D3LowSmallEDBlockList	2500	0	267293	0	267293	-2	267293	2499	c	2223	269516	4.0
7	2.5	000_R01_VA_allProc	36	1	"<?xml version=""1.0""?>\n<Clock xmlns:dt=""urn:schemas-microsoft-com:datatypes""><Description dt:dt=""string"">E-Prime Primary Realtime Clock</Description><StartTime><Timestamp dt:dt=""int"">0</Timestamp><DateUtc dt:dt=""string"">2018-08-01T17:15:49Z</DateUtc></StartTime><FrequencyChanges><FrequencyChange><Frequency dt:dt=""r8"">3020400</Frequency><Timestamp dt:dt=""r8"">198874994962</Timestamp><Current dt:dt=""r8"">0</Current><DateUtc dt:dt=""string"">2018-08-01T17:15:49Z</DateUtc></FrequencyChange></FrequencyChanges></Clock>\n"	000_R01_VA_allProc-36-1	60.022	1.0.0.178	1	1307110094	Professional	2.0.10.356	2.0.10.356	08-01-2018	8/1/2018 5:15:50 PM	13:15:50	2.0.10.252	2	0	0	263295	23	263295	3998	-999999	445432	-3	423236	0	Run3Proc	2	1	2	RunList	1	LowSmallED	8000.0	0.0	285287.0	0.0	285287.0	0.0	285287.0	0.0	D3LowSmallEDBlockProc	n/a	n/a	n/a	n/a	n/a	n/a	1.0	1.0	1.0	n/a	n/a	n/a	n/a	n/a	n/a	Run3BlockList	2	n/a	n/a	n/a	n/a	n/a	n/a	n/a	n/a	n/a	n/a	n/a	n/a	n/a	n/a	n/a	n/a	n/a	n/a	n/a	n/a	n/a	n/a	n/a	n/a	n/a	n/a	n/a	n/a	n/a	n/a	n/a	n/a	n/a	n/a	n/a	n/a	n/a	n/a	n/a	n/a	n/a	n/a	n/a	n/a	n/a	n/a	n/a	n/a	n/a	n/a	n/a	2.0	1.0	2.0	n/a	n/a	n/a	n/a	n/a	n/a	n/a	n/a	n/a	n/a	n/a	n/a	n/a	n/a	n/a	n/a	n/a	n/a	n/a	n/a	n/a	n/a	n/a	n/a	n/a	n/a	n/a	n/a	n/a	n/a	n/a	n/a	n/a	n/a	n/a	n/a	D3_02.jpg	500	0	272791	-1	272791	0	TrialProc1	D3LowSmallEDBlockList	2500	0	270292	0	270292	0	270292	2499	n/a	0	0	6.9990000000000006
10	2.5	000_R01_VA_allProc	36	1	"<?xml version=""1.0""?>\n<Clock xmlns:dt=""urn:schemas-microsoft-com:datatypes""><Description dt:dt=""string"">E-Prime Primary Realtime Clock</Description><StartTime><Timestamp dt:dt=""int"">0</Timestamp><DateUtc dt:dt=""string"">2018-08-01T17:15:49Z</DateUtc></StartTime><FrequencyChanges><FrequencyChange><Frequency dt:dt=""r8"">3020400</Frequency><Timestamp dt:dt=""r8"">198874994962</Timestamp><Current dt:dt=""r8"">0</Current><DateUtc dt:dt=""string"">2018-08-01T17:15:49Z</DateUtc></FrequencyChange></FrequencyChanges></Clock>\n"	000_R01_VA_allProc-36-1	60.022	1.0.0.178	1	1307110094	Professional	2.0.10.356	2.0.10.356	08-01-2018	8/1/2018 5:15:50 PM	13:15:50	2.0.10.252	2	0	0	263295	23	263295	3998	-999999	445432	-3	423236	0	Run3Proc	2	1	2	RunList	1	LowSmallED	8000.0	0.0	285287.0	0.0	285287.0	0.0	285287.0	0.0	D3LowSmallEDBlockProc	n/a	n/a	n/a	n/a	n/a	n/a	1.0	1.0	1.0	n/a	n/a	n/a	n/a	n/a	n/a	Run3BlockList	3	n/a	n/a	n/a	n/a	n/a	n/a	n/a	n/a	n/a	n/a	n/a	n/a	n/a	n/a	n/a	n/a	n/a	n/a	n/a	n/a	n/a	n/a	n/a	n/a	n/a	n/a	n/a	n/a	n/a	n/a	n/a	n/a	n/a	n/a	n/a	n/a	n/a	n/a	n/a	n/a	n/a	n/a	n/a	n/a	n/a	n/a	n/a	n/a	n/a	n/a	n/a	3.0	1.0	3.0	n/a	n/a	n/a	n/a	n/a	n/a	n/a	n/a	n/a	n/a	n/a	n/a	n/a	n/a	n/a	n/a	n/a	n/a	n/a	n/a	n/a	n/a	n/a	n/a	n/a	n/a	n/a	n/a	n/a	n/a	n/a	n/a	n/a	n/a	n/a	n/a	D3_03.jpg	500	0	275790	-1	275790	0	TrialProc1	D3LowSmallEDBlockList	2500	0	273291	0	273291	0	273291	2499	d	1081	274372	9.998000000000001
13	2.5	000_R01_VA_allProc	36	1	"<?xml version=""1.0""?>\n<Clock xmlns:dt=""urn:schemas-microsoft-com:datatypes""><Description dt:dt=""string"">E-Prime Primary Realtime Clock</Description><StartTime><Timestamp dt:dt=""int"">0</Timestamp><DateUtc dt:dt=""string"">2018-08-01T17:15:49Z</DateUtc></StartTime><FrequencyChanges><FrequencyChange><Frequency dt:dt=""r8"">3020400</Frequency><Timestamp dt:dt=""r8"">198874994962</Timestamp><Current dt:dt=""r8"">0</Current><DateUtc dt:dt=""string"">2018-08-01T17:15:49Z</DateUtc></FrequencyChange></FrequencyChanges></Clock>\n"	000_R01_VA_allProc-36-1	60.022	1.0.0.178	1	1307110094	Professional	2.0.10.356	2.0.10.356	08-01-2018	8/1/2018 5:15:50 PM	13:15:50	2.0.10.252	2	0	0	263295	23	263295	3998	-999999	445432	-3	423236	0	Run3Proc	2	1	2	RunList	1	LowSmallED	8000.0	0.0	285287.0	0.0	285287.0	0.0	285287.0	0.0	D3LowSmallEDBlockProc	n/a	n/a	n/a	n/a	n/a	n/a	1.0	1.0	1.0	n/a	n/a	n/a	n/a	n/a	n/a	Run3BlockList	4	n/a	n/a	n/a	n/a	n/a	n/a	n/a	n/a	n/a	n/a	n/a	n/a	n/a	n/a	n/a	n/a	n/a	n/a	n/a	n/a	n/a	n/a	n/a	n/a	n/a	n/a	n/a	n/a	n/a	n/a	n/a	n/a	n/a	n/a	n/a	n/a	n/a	n/a	n/a	n/a	n/a	n/a	n/a	n/a	n/a	n/a	n/a	n/a	n/a	n/a	n/a	4.0	1.0	4.0	n/a	n/a	n/a	n/a	n/a	n/a	n/a	n/a	n/a	n/a	n/a	n/a	n/a	n/a	n/a	n/a	n/a	n/a	n/a	n/a	n/a	n/a	n/a	n/a	n/a	n/a	n/a	n/a	n/a	n/a	n/a	n/a	n/a	n/a	n/a	n/a	D3_04.jpg	500	0	278789	-1	278789	0	TrialProc1	D3LowSmallEDBlockList	2500	0	276290	0	276290	0	276290	2499	c	1370	277660	12.997
16	2.5	000_R01_VA_allProc	36	1	"<?xml version=""1.0""?>\n<Clock xmlns:dt=""urn:schemas-microsoft-com:datatypes""><Description dt:dt=""string"">E-Prime Primary Realtime Clock</Description><StartTime><Timestamp dt:dt=""int"">0</Timestamp><DateUtc dt:dt=""string"">2018-08-01T17:15:49Z</DateUtc></StartTime><FrequencyChanges><FrequencyChange><Frequency dt:dt=""r8"">3020400</Frequency><Timestamp dt:dt=""r8"">198874994962</Timestamp><Current dt:dt=""r8"">0</Current><DateUtc dt:dt=""string"">2018-08-01T17:15:49Z</DateUtc></FrequencyChange></FrequencyChanges></Clock>\n"	000_R01_VA_allProc-36-1	60.022	1.0.0.178	1	1307110094	Professional	2.0.10.356	2.0.10.356	08-01-2018	8/1/2018 5:15:50 PM	13:15:50	2.0.10.252	2	0	0	263295	23	263295	3998	-999999	445432	-3	423236	0	Run3Proc	2	1	2	RunList	1	LowSmallED	8000.0	0.0	285287.0	0.0	285287.0	0.0	285287.0	0.0	D3LowSmallEDBlockProc	n/a	n/a	n/a	n/a	n/a	n/a	1.0	1.0	1.0	n/a	n/a	n/a	n/a	n/a	n/a	Run3BlockList	5	n/a	n/a	n/a	n/a	n/a	n/a	n/a	n/a	n/a	n/a	n/a	n/a	n/a	n/a	n/a	n/a	n/a	n/a	n/a	n/a	n/a	n/a	n/a	n/a	n/a	n/a	n/a	n/a	n/a	n/a	n/a	n/a	n/a	n/a	n/a	n/a	n/a	n/a	n/a	n/a	n/a	n/a	n/a	n/a	n/a	n/a	n/a	n/a	n/a	n/a	n/a	5.0	1.0	5.0	n/a	n/a	n/a	n/a	n/a	n/a	n/a	n/a	n/a	n/a	n/a	n/a	n/a	n/a	n/a	n/a	n/a	n/a	n/a	n/a	n/a	n/a	n/a	n/a	n/a	n/a	n/a	n/a	n/a	n/a	n/a	n/a	n/a	n/a	n/a	n/a	D3_05.jpg	500	0	281788	-1	281788	0	TrialProc1	D3LowSmallEDBlockList	2500	0	279289	0	279289	0	279289	2499	c	1339	280628	15.996
19	2.5	000_R01_VA_allProc	36	1	"<?xml version=""1.0""?>\n<Clock xmlns:dt=""urn:schemas-microsoft-com:datatypes""><Description dt:dt=""string"">E-Prime Primary Realtime Clock</Description><StartTime><Timestamp dt:dt=""int"">0</Timestamp><DateUtc dt:dt=""string"">2018-08-01T17:15:49Z</DateUtc></StartTime><FrequencyChanges><FrequencyChange><Frequency dt:dt=""r8"">3020400</Frequency><Timestamp dt:dt=""r8"">198874994962</Timestamp><Current dt:dt=""r8"">0</Current><DateUtc dt:dt=""string"">2018-08-01T17:15:49Z</DateUtc></FrequencyChange></FrequencyChanges></Clock>\n"	000_R01_VA_allProc-36-1	60.022	1.0.0.178	1	1307110094	Professional	2.0.10.356	2.0.10.356	08-01-2018	8/1/2018 5:15:50 PM	13:15:50	2.0.10.252	2	0	0	263295	23	263295	3998	-999999	445432	-3	423236	0	Run3Proc	2	1	2	RunList	1	LowSmallED	8000.0	0.0	285287.0	0.0	285287.0	0.0	285287.0	0.0	D3LowSmallEDBlockProc	n/a	n/a	n/a	n/a	n/a	n/a	1.0	1.0	1.0	n/a	n/a	n/a	n/a	n/a	n/a	Run3BlockList	6	n/a	n/a	n/a	n/a	n/a	n/a	n/a	n/a	n/a	n/a	n/a	n/a	n/a	n/a	n/a	n/a	n/a	n/a	n/a	n/a	n/a	n/a	n/a	n/a	n/a	n/a	n/a	n/a	n/a	n/a	n/a	n/a	n/a	n/a	n/a	n/a	n/a	n/a	n/a	n/a	n/a	n/a	n/a	n/a	n/a	n/a	n/a	n/a	n/a	n/a	n/a	6.0	1.0	6.0	n/a	n/a	n/a	n/a	n/a	n/a	n/a	n/a	n/a	n/a	n/a	n/a	n/a	n/a	n/a	n/a	n/a	n/a	n/a	n/a	n/a	n/a	n/a	n/a	n/a	n/a	n/a	n/a	n/a	n/a	n/a	n/a	n/a	n/a	n/a	n/a	D3_06.jpg	500	0	284787	-1	284787	0	TrialProc1	D3LowSmallEDBlockList	2500	0	282288	0	282288	0	282288	2499	c	2012	284300	18.994999999999997
30	2.5	000_R01_VA_allProc	36	1	"<?xml version=""1.0""?>\n<Clock xmlns:dt=""urn:schemas-microsoft-com:datatypes""><Description dt:dt=""string"">E-Prime Primary Realtime Clock</Description><StartTime><Timestamp dt:dt=""int"">0</Timestamp><DateUtc dt:dt=""string"">2018-08-01T17:15:49Z</DateUtc></StartTime><FrequencyChanges><FrequencyChange><Frequency dt:dt=""r8"">3020400</Frequency><Timestamp dt:dt=""r8"">198874994962</Timestamp><Current dt:dt=""r8"">0</Current><DateUtc dt:dt=""string"">2018-08-01T17:15:49Z</DateUtc></FrequencyChange></FrequencyChanges></Clock>\n"	000_R01_VA_allProc-36-1	60.022	1.0.0.178	1	1307110094	Professional	2.0.10.356	2.0.10.356	08-01-2018	8/1/2018 5:15:50 PM	13:15:50	2.0.10.252	2	0	0	263295	23	263295	3998	-999999	445432	-3	423236	0	Run3Proc	2	1	2	RunList	2	OfficeLarge	8000.0	0.0	311277.0	0.0	311277.0	0.0	311277.0	0.0	E3OfficeLargeBlockProc	n/a	n/a	n/a	n/a	n/a	n/a	2.0	1.0	2.0	n/a	n/a	n/a	n/a	n/a	n/a	Run3BlockList	1	n/a	n/a	n/a	n/a	n/a	n/a	n/a	n/a	n/a	n/a	n/a	n/a	n/a	n/a	n/a	n/a	n/a	n/a	n/a	n/a	n/a	n/a	n/a	n/a	n/a	n/a	n/a	n/a	n/a	n/a	n/a	n/a	n/a	n/a	n/a	n/a	n/a	n/a	n/a	n/a	n/a	n/a	n/a	n/a	n/a	n/a	n/a	n/a	n/a	n/a	n/a	n/a	n/a	n/a	n/a	n/a	n/a	n/a	n/a	n/a	n/a	n/a	n/a	n/a	n/a	n/a	1.0	1.0	1.0	n/a	n/a	n/a	n/a	n/a	n/a	n/a	n/a	n/a	n/a	n/a	n/a	n/a	n/a	n/a	n/a	n/a	n/a	n/a	n/a	n/a	E3_01.jpg	500	0	295783	-1	295783	0	TrialProc1	E3OfficeLargeBlockList	2500	0	293284	0	293284	-3	293284	2499	c	1768	295052	29.991
33	2.5	000_R01_VA_allProc	36	1	"<?xml version=""1.0""?>\n<Clock xmlns:dt=""urn:schemas-microsoft-com:datatypes""><Description dt:dt=""string"">E-Prime Primary Realtime Clock</Description><StartTime><Timestamp dt:dt=""int"">0</Timestamp><DateUtc dt:dt=""string"">2018-08-01T17:15:49Z</DateUtc></StartTime><FrequencyChanges><FrequencyChange><Frequency dt:dt=""r8"">3020400</Frequency><Timestamp dt:dt=""r8"">198874994962</Timestamp><Current dt:dt=""r8"">0</Current><DateUtc dt:dt=""string"">2018-08-01T17:15:49Z</DateUtc></FrequencyChange></FrequencyChanges></Clock>\n"	000_R01_VA_allProc-36-1	60.022	1.0.0.178	1	1307110094	Professional	2.0.10.356	2.0.10.356	08-01-2018	8/1/2018 5:15:50 PM	13:15:50	2.0.10.252	2	0	0	263295	23	263295	3998	-999999	445432	-3	423236	0	Run3Proc	2	1	2	RunList	2	OfficeLarge	8000.0	0.0	311277.0	0.0	311277.0	0.0	311277.0	0.0	E3OfficeLargeBlockProc	n/a	n/a	n/a	n/a	n/a	n/a	2.0	1.0	2.0	n/a	n/a	n/a	n/a	n/a	n/a	Run3BlockList	2	n/a	n/a	n/a	n/a	n/a	n/a	n/a	n/a	n/a	n/a	n/a	n/a	n/a	n/a	n/a	n/a	n/a	n/a	n/a	n/a	n/a	n/a	n/a	n/a	n/a	n/a	n/a	n/a	n/a	n/a	n/a	n/a	n/a	n/a	n/a	n/a	n/a	n/a	n/a	n/a	n/a	n/a	n/a	n/a	n/a	n/a	n/a	n/a	n/a	n/a	n/a	n/a	n/a	n/a	n/a	n/a	n/a	n/a	n/a	n/a	n/a	n/a	n/a	n/a	n/a	n/a	2.0	1.0	2.0	n/a	n/a	n/a	n/a	n/a	n/a	n/a	n/a	n/a	n/a	n/a	n/a	n/a	n/a	n/a	n/a	n/a	n/a	n/a	n/a	n/a	E3_02.jpg	500	0	298782	-1	298782	0	TrialProc1	E3OfficeLargeBlockList	2500	0	296283	0	296283	0	296283	2499	c	1673	297956	32.989999999999995
36	2.5	000_R01_VA_allProc	36	1	"<?xml version=""1.0""?>\n<Clock xmlns:dt=""urn:schemas-microsoft-com:datatypes""><Description dt:dt=""string"">E-Prime Primary Realtime Clock</Description><StartTime><Timestamp dt:dt=""int"">0</Timestamp><DateUtc dt:dt=""string"">2018-08-01T17:15:49Z</DateUtc></StartTime><FrequencyChanges><FrequencyChange><Frequency dt:dt=""r8"">3020400</Frequency><Timestamp dt:dt=""r8"">198874994962</Timestamp><Current dt:dt=""r8"">0</Current><DateUtc dt:dt=""string"">2018-08-01T17:15:49Z</DateUtc></FrequencyChange></FrequencyChanges></Clock>\n"	000_R01_VA_allProc-36-1	60.022	1.0.0.178	1	1307110094	Professional	2.0.10.356	2.0.10.356	08-01-2018	8/1/2018 5:15:50 PM	13:15:50	2.0.10.252	2	0	0	263295	23	263295	3998	-999999	445432	-3	423236	0	Run3Proc	2	1	2	RunList	2	OfficeLarge	8000.0	0.0	311277.0	0.0	311277.0	0.0	311277.0	0.0	E3OfficeLargeBlockProc	n/a	n/a	n/a	n/a	n/a	n/a	2.0	1.0	2.0	n/a	n/a	n/a	n/a	n/a	n/a	Run3BlockList	3	n/a	n/a	n/a	n/a	n/a	n/a	n/a	n/a	n/a	n/a	n/a	n/a	n/a	n/a	n/a	n/a	n/a	n/a	n/a	n/a	n/a	n/a	n/a	n/a	n/a	n/a	n/a	n/a	n/a	n/a	n/a	n/a	n/a	n/a	n/a	n/a	n/a	n/a	n/a	n/a	n/a	n/a	n/a	n/a	n/a	n/a	n/a	n/a	n/a	n/a	n/a	n/a	n/a	n/a	n/a	n/a	n/a	n/a	n/a	n/a	n/a	n/a	n/a	n/a	n/a	n/a	3.0	1.0	3.0	n/a	n/a	n/a	n/a	n/a	n/a	n/a	n/a	n/a	n/a	n/a	n/a	n/a	n/a	n/a	n/a	n/a	n/a	n/a	n/a	n/a	E3_03.jpg	500	0	301781	0	301781	0	TrialProc1	E3OfficeLargeBlockList	2500	1	299282	1	299282	-1	299281	2500	d	587	299868	35.988
39	2.5	000_R01_VA_allProc	36	1	"<?xml version=""1.0""?>\n<Clock xmlns:dt=""urn:schemas-microsoft-com:datatypes""><Description dt:dt=""string"">E-Prime Primary Realtime Clock</Description><StartTime><Timestamp dt:dt=""int"">0</Timestamp><DateUtc dt:dt=""string"">2018-08-01T17:15:49Z</DateUtc></StartTime><FrequencyChanges><FrequencyChange><Frequency dt:dt=""r8"">3020400</Frequency><Timestamp dt:dt=""r8"">198874994962</Timestamp><Current dt:dt=""r8"">0</Current><DateUtc dt:dt=""string"">2018-08-01T17:15:49Z</DateUtc></FrequencyChange></FrequencyChanges></Clock>\n"	000_R01_VA_allProc-36-1	60.022	1.0.0.178	1	1307110094	Professional	2.0.10.356	2.0.10.356	08-01-2018	8/1/2018 5:15:50 PM	13:15:50	2.0.10.252	2	0	0	263295	23	263295	3998	-999999	445432	-3	423236	0	Run3Proc	2	1	2	RunList	2	OfficeLarge	8000.0	0.0	311277.0	0.0	311277.0	0.0	311277.0	0.0	E3OfficeLargeBlockProc	n/a	n/a	n/a	n/a	n/a	n/a	2.0	1.0	2.0	n/a	n/a	n/a	n/a	n/a	n/a	Run3BlockList	4	n/a	n/a	n/a	n/a	n/a	n/a	n/a	n/a	n/a	n/a	n/a	n/a	n/a	n/a	n/a	n/a	n/a	n/a	n/a	n/a	n/a	n/a	n/a	n/a	n/a	n/a	n/a	n/a	n/a	n/a	n/a	n/a	n/a	n/a	n/a	n/a	n/a	n/a	n/a	n/a	n/a	n/a	n/a	n/a	n/a	n/a	n/a	n/a	n/a	n/a	n/a	n/a	n/a	n/a	n/a	n/a	n/a	n/a	n/a	n/a	n/a	n/a	n/a	n/a	n/a	n/a	4.0	1.0	4.0	n/a	n/a	n/a	n/a	n/a	n/a	n/a	n/a	n/a	n/a	n/a	n/a	n/a	n/a	n/a	n/a	n/a	n/a	n/a	n/a	n/a	E3_04.jpg	500	1	304780	-1	304779	0	TrialProc1	E3OfficeLargeBlockList	2500	0	302280	0	302280	-1	302280	2499	d	1388	303668	38.987
42	2.5	000_R01_VA_allProc	36	1	"<?xml version=""1.0""?>\n<Clock xmlns:dt=""urn:schemas-microsoft-com:datatypes""><Description dt:dt=""string"">E-Prime Primary Realtime Clock</Description><StartTime><Timestamp dt:dt=""int"">0</Timestamp><DateUtc dt:dt=""string"">2018-08-01T17:15:49Z</DateUtc></StartTime><FrequencyChanges><FrequencyChange><Frequency dt:dt=""r8"">3020400</Frequency><Timestamp dt:dt=""r8"">198874994962</Timestamp><Current dt:dt=""r8"">0</Current><DateUtc dt:dt=""string"">2018-08-01T17:15:49Z</DateUtc></FrequencyChange></FrequencyChanges></Clock>\n"	000_R01_VA_allProc-36-1	60.022	1.0.0.178	1	1307110094	Professional	2.0.10.356	2.0.10.356	08-01-2018	8/1/2018 5:15:50 PM	13:15:50	2.0.10.252	2	0	0	263295	23	263295	3998	-999999	445432	-3	423236	0	Run3Proc	2	1	2	RunList	2	OfficeLarge	8000.0	0.0	311277.0	0.0	311277.0	0.0	311277.0	0.0	E3OfficeLargeBlockProc	n/a	n/a	n/a	n/a	n/a	n/a	2.0	1.0	2.0	n/a	n/a	n/a	n/a	n/a	n/a	Run3BlockList	5	n/a	n/a	n/a	n/a	n/a	n/a	n/a	n/a	n/a	n/a	n/a	n/a	n/a	n/a	n/a	n/a	n/a	n/a	n/a	n/a	n/a	n/a	n/a	n/a	n/a	n/a	n/a	n/a	n/a	n/a	n/a	n/a	n/a	n/a	n/a	n/a	n/a	n/a	n/a	n/a	n/a	n/a	n/a	n/a	n/a	n/a	n/a	n/a	n/a	n/a	n/a	n/a	n/a	n/a	n/a	n/a	n/a	n/a	n/a	n/a	n/a	n/a	n/a	n/a	n/a	n/a	5.0	1.0	5.0	n/a	n/a	n/a	n/a	n/a	n/a	n/a	n/a	n/a	n/a	n/a	n/a	n/a	n/a	n/a	n/a	n/a	n/a	n/a	n/a	n/a	E3_05.jpg	500	0	307778	-1	307778	0	TrialProc1	E3OfficeLargeBlockList	2500	0	305279	0	305279	0	305279	2499	d	988	306267	41.986
45	2.5	000_R01_VA_allProc	36	1	"<?xml version=""1.0""?>\n<Clock xmlns:dt=""urn:schemas-microsoft-com:datatypes""><Description dt:dt=""string"">E-Prime Primary Realtime Clock</Description><StartTime><Timestamp dt:dt=""int"">0</Timestamp><DateUtc dt:dt=""string"">2018-08-01T17:15:49Z</DateUtc></StartTime><FrequencyChanges><FrequencyChange><Frequency dt:dt=""r8"">3020400</Frequency><Timestamp dt:dt=""r8"">198874994962</Timestamp><Current dt:dt=""r8"">0</Current><DateUtc dt:dt=""string"">2018-08-01T17:15:49Z</DateUtc></FrequencyChange></FrequencyChanges></Clock>\n"	000_R01_VA_allProc-36-1	60.022	1.0.0.178	1	1307110094	Professional	2.0.10.356	2.0.10.356	08-01-2018	8/1/2018 5:15:50 PM	13:15:50	2.0.10.252	2	0	0	263295	23	263295	3998	-999999	445432	-3	423236	0	Run3Proc	2	1	2	RunList	2	OfficeLarge	8000.0	0.0	311277.0	0.0	311277.0	0.0	311277.0	0.0	E3OfficeLargeBlockProc	n/a	n/a	n/a	n/a	n/a	n/a	2.0	1.0	2.0	n/a	n/a	n/a	n/a	n/a	n/a	Run3BlockList	6	n/a	n/a	n/a	n/a	n/a	n/a	n/a	n/a	n/a	n/a	n/a	n/a	n/a	n/a	n/a	n/a	n/a	n/a	n/a	n/a	n/a	n/a	n/a	n/a	n/a	n/a	n/a	n/a	n/a	n/a	n/a	n/a	n/a	n/a	n/a	n/a	n/a	n/a	n/a	n/a	n/a	n/a	n/a	n/a	n/a	n/a	n/a	n/a	n/a	n/a	n/a	n/a	n/a	n/a	n/a	n/a	n/a	n/a	n/a	n/a	n/a	n/a	n/a	n/a	n/a	n/a	6.0	1.0	6.0	n/a	n/a	n/a	n/a	n/a	n/a	n/a	n/a	n/a	n/a	n/a	n/a	n/a	n/a	n/a	n/a	n/a	n/a	n/a	n/a	n/a	E3_06.jpg	500	0	310777	-1	310777	0	TrialProc1	E3OfficeLargeBlockList	2500	0	308278	0	308278	0	308278	2499	d	605	308883	44.985
56	2.5	000_R01_VA_allProc	36	1	"<?xml version=""1.0""?>\n<Clock xmlns:dt=""urn:schemas-microsoft-com:datatypes""><Description dt:dt=""string"">E-Prime Primary Realtime Clock</Description><StartTime><Timestamp dt:dt=""int"">0</Timestamp><DateUtc dt:dt=""string"">2018-08-01T17:15:49Z</DateUtc></StartTime><FrequencyChanges><FrequencyChange><Frequency dt:dt=""r8"">3020400</Frequency><Timestamp dt:dt=""r8"">198874994962</Timestamp><Current dt:dt=""r8"">0</Current><DateUtc dt:dt=""string"">2018-08-01T17:15:49Z</DateUtc></FrequencyChange></FrequencyChanges></Clock>\n"	000_R01_VA_allProc-36-1	60.022	1.0.0.178	1	1307110094	Professional	2.0.10.356	2.0.10.356	08-01-2018	8/1/2018 5:15:50 PM	13:15:50	2.0.10.252	2	0	0	263295	23	263295	3998	-999999	445432	-3	423236	0	Run3Proc	2	1	2	RunList	3	HighSmallED	8000.0	1.0	337268.0	1.0	337268.0	-1.0	337267.0	0.0	B3HighSmallEDBlockProc	n/a	n/a	n/a	n/a	n/a	n/a	3.0	1.0	3.0	n/a	n/a	n/a	n/a	n/a	n/a	Run3BlockList	1	n/a	n/a	n/a	n/a	n/a	n/a	n/a	n/a	n/a	n/a	n/a	n/a	n/a	n/a	n/a	n/a	n/a	n/a	n/a	n/a	n/a	1.0	1.0	1.0	n/a	n/a	n/a	n/a	n/a	n/a	n/a	n/a	n/a	n/a	n/a	n/a	n/a	n/a	n/a	n/a	n/a	n/a	n/a	n/a	n/a	n/a	n/a	n/a	n/a	n/a	n/a	n/a	n/a	n/a	n/a	n/a	n/a	n/a	n/a	n/a	n/a	n/a	n/a	n/a	n/a	n/a	n/a	n/a	n/a	n/a	n/a	n/a	n/a	n/a	n/a	n/a	n/a	n/a	n/a	n/a	n/a	n/a	n/a	n/a	n/a	n/a	n/a	n/a	n/a	n/a	B3_01.jpg	500	0	321773	-1	321773	0	TrialProc1	B3HighSmallEDBlockList	2500	0	319274	0	319274	-3	319274	2499	d	1033	320307	55.981
59	2.5	000_R01_VA_allProc	36	1	"<?xml version=""1.0""?>\n<Clock xmlns:dt=""urn:schemas-microsoft-com:datatypes""><Description dt:dt=""string"">E-Prime Primary Realtime Clock</Description><StartTime><Timestamp dt:dt=""int"">0</Timestamp><DateUtc dt:dt=""string"">2018-08-01T17:15:49Z</DateUtc></StartTime><FrequencyChanges><FrequencyChange><Frequency dt:dt=""r8"">3020400</Frequency><Timestamp dt:dt=""r8"">198874994962</Timestamp><Current dt:dt=""r8"">0</Current><DateUtc dt:dt=""string"">2018-08-01T17:15:49Z</DateUtc></FrequencyChange></FrequencyChanges></Clock>\n"	000_R01_VA_allProc-36-1	60.022	1.0.0.178	1	1307110094	Professional	2.0.10.356	2.0.10.356	08-01-2018	8/1/2018 5:15:50 PM	13:15:50	2.0.10.252	2	0	0	263295	23	263295	3998	-999999	445432	-3	423236	0	Run3Proc	2	1	2	RunList	3	HighSmallED	8000.0	1.0	337268.0	1.0	337268.0	-1.0	337267.0	0.0	B3HighSmallEDBlockProc	n/a	n/a	n/a	n/a	n/a	n/a	3.0	1.0	3.0	n/a	n/a	n/a	n/a	n/a	n/a	Run3BlockList	2	n/a	n/a	n/a	n/a	n/a	n/a	n/a	n/a	n/a	n/a	n/a	n/a	n/a	n/a	n/a	n/a	n/a	n/a	n/a	n/a	n/a	2.0	1.0	2.0	n/a	n/a	n/a	n/a	n/a	n/a	n/a	n/a	n/a	n/a	n/a	n/a	n/a	n/a	n/a	n/a	n/a	n/a	n/a	n/a	n/a	n/a	n/a	n/a	n/a	n/a	n/a	n/a	n/a	n/a	n/a	n/a	n/a	n/a	n/a	n/a	n/a	n/a	n/a	n/a	n/a	n/a	n/a	n/a	n/a	n/a	n/a	n/a	n/a	n/a	n/a	n/a	n/a	n/a	n/a	n/a	n/a	n/a	n/a	n/a	n/a	n/a	n/a	n/a	n/a	n/a	B3_02.jpg	500	0	324772	-1	324772	0	TrialProc1	B3HighSmallEDBlockList	2500	0	322273	0	322273	0	322273	2499	d	1002	323275	58.98
62	2.5	000_R01_VA_allProc	36	1	"<?xml version=""1.0""?>\n<Clock xmlns:dt=""urn:schemas-microsoft-com:datatypes""><Description dt:dt=""string"">E-Prime Primary Realtime Clock</Description><StartTime><Timestamp dt:dt=""int"">0</Timestamp><DateUtc dt:dt=""string"">2018-08-01T17:15:49Z</DateUtc></StartTime><FrequencyChanges><FrequencyChange><Frequency dt:dt=""r8"">3020400</Frequency><Timestamp dt:dt=""r8"">198874994962</Timestamp><Current dt:dt=""r8"">0</Current><DateUtc dt:dt=""string"">2018-08-01T17:15:49Z</DateUtc></FrequencyChange></FrequencyChanges></Clock>\n"	000_R01_VA_allProc-36-1	60.022	1.0.0.178	1	1307110094	Professional	2.0.10.356	2.0.10.356	08-01-2018	8/1/2018 5:15:50 PM	13:15:50	2.0.10.252	2	0	0	263295	23	263295	3998	-999999	445432	-3	423236	0	Run3Proc	2	1	2	RunList	3	HighSmallED	8000.0	1.0	337268.0	1.0	337268.0	-1.0	337267.0	0.0	B3HighSmallEDBlockProc	n/a	n/a	n/a	n/a	n/a	n/a	3.0	1.0	3.0	n/a	n/a	n/a	n/a	n/a	n/a	Run3BlockList	3	n/a	n/a	n/a	n/a	n/a	n/a	n/a	n/a	n/a	n/a	n/a	n/a	n/a	n/a	n/a	n/a	n/a	n/a	n/a	n/a	n/a	3.0	1.0	3.0	n/a	n/a	n/a	n/a	n/a	n/a	n/a	n/a	n/a	n/a	n/a	n/a	n/a	n/a	n/a	n/a	n/a	n/a	n/a	n/a	n/a	n/a	n/a	n/a	n/a	n/a	n/a	n/a	n/a	n/a	n/a	n/a	n/a	n/a	n/a	n/a	n/a	n/a	n/a	n/a	n/a	n/a	n/a	n/a	n/a	n/a	n/a	n/a	n/a	n/a	n/a	n/a	n/a	n/a	n/a	n/a	n/a	n/a	n/a	n/a	n/a	n/a	n/a	n/a	n/a	n/a	B3_03.jpg	500	0	327771	-1	327771	0	TrialProc1	B3HighSmallEDBlockList	2500	0	325272	0	325272	0	325272	2499	d	1323	326595	61.979
65	2.5	000_R01_VA_allProc	36	1	"<?xml version=""1.0""?>\n<Clock xmlns:dt=""urn:schemas-microsoft-com:datatypes""><Description dt:dt=""string"">E-Prime Primary Realtime Clock</Description><StartTime><Timestamp dt:dt=""int"">0</Timestamp><DateUtc dt:dt=""string"">2018-08-01T17:15:49Z</DateUtc></StartTime><FrequencyChanges><FrequencyChange><Frequency dt:dt=""r8"">3020400</Frequency><Timestamp dt:dt=""r8"">198874994962</Timestamp><Current dt:dt=""r8"">0</Current><DateUtc dt:dt=""string"">2018-08-01T17:15:49Z</DateUtc></FrequencyChange></FrequencyChanges></Clock>\n"	000_R01_VA_allProc-36-1	60.022	1.0.0.178	1	1307110094	Professional	2.0.10.356	2.0.10.356	08-01-2018	8/1/2018 5:15:50 PM	13:15:50	2.0.10.252	2	0	0	263295	23	263295	3998	-999999	445432	-3	423236	0	Run3Proc	2	1	2	RunList	3	HighSmallED	8000.0	1.0	337268.0	1.0	337268.0	-1.0	337267.0	0.0	B3HighSmallEDBlockProc	n/a	n/a	n/a	n/a	n/a	n/a	3.0	1.0	3.0	n/a	n/a	n/a	n/a	n/a	n/a	Run3BlockList	4	n/a	n/a	n/a	n/a	n/a	n/a	n/a	n/a	n/a	n/a	n/a	n/a	n/a	n/a	n/a	n/a	n/a	n/a	n/a	n/a	n/a	4.0	1.0	4.0	n/a	n/a	n/a	n/a	n/a	n/a	n/a	n/a	n/a	n/a	n/a	n/a	n/a	n/a	n/a	n/a	n/a	n/a	n/a	n/a	n/a	n/a	n/a	n/a	n/a	n/a	n/a	n/a	n/a	n/a	n/a	n/a	n/a	n/a	n/a	n/a	n/a	n/a	n/a	n/a	n/a	n/a	n/a	n/a	n/a	n/a	n/a	n/a	n/a	n/a	n/a	n/a	n/a	n/a	n/a	n/a	n/a	n/a	n/a	n/a	n/a	n/a	n/a	n/a	n/a	n/a	B3_04.jpg	500	0	330770	-1	330770	0	TrialProc1	B3HighSmallEDBlockList	2500	0	328271	0	328271	0	328271	2499	d	988	329259	64.97800000000001
68	2.5	000_R01_VA_allProc	36	1	"<?xml version=""1.0""?>\n<Clock xmlns:dt=""urn:schemas-microsoft-com:datatypes""><Description dt:dt=""string"">E-Prime Primary Realtime Clock</Description><StartTime><Timestamp dt:dt=""int"">0</Timestamp><DateUtc dt:dt=""string"">2018-08-01T17:15:49Z</DateUtc></StartTime><FrequencyChanges><FrequencyChange><Frequency dt:dt=""r8"">3020400</Frequency><Timestamp dt:dt=""r8"">198874994962</Timestamp><Current dt:dt=""r8"">0</Current><DateUtc dt:dt=""string"">2018-08-01T17:15:49Z</DateUtc></FrequencyChange></FrequencyChanges></Clock>\n"	000_R01_VA_allProc-36-1	60.022	1.0.0.178	1	1307110094	Professional	2.0.10.356	2.0.10.356	08-01-2018	8/1/2018 5:15:50 PM	13:15:50	2.0.10.252	2	0	0	263295	23	263295	3998	-999999	445432	-3	423236	0	Run3Proc	2	1	2	RunList	3	HighSmallED	8000.0	1.0	337268.0	1.0	337268.0	-1.0	337267.0	0.0	B3HighSmallEDBlockProc	n/a	n/a	n/a	n/a	n/a	n/a	3.0	1.0	3.0	n/a	n/a	n/a	n/a	n/a	n/a	Run3BlockList	5	n/a	n/a	n/a	n/a	n/a	n/a	n/a	n/a	n/a	n/a	n/a	n/a	n/a	n/a	n/a	n/a	n/a	n/a	n/a	n/a	n/a	5.0	1.0	5.0	n/a	n/a	n/a	n/a	n/a	n/a	n/a	n/a	n/a	n/a	n/a	n/a	n/a	n/a	n/a	n/a	n/a	n/a	n/a	n/a	n/a	n/a	n/a	n/a	n/a	n/a	n/a	n/a	n/a	n/a	n/a	n/a	n/a	n/a	n/a	n/a	n/a	n/a	n/a	n/a	n/a	n/a	n/a	n/a	n/a	n/a	n/a	n/a	n/a	n/a	n/a	n/a	n/a	n/a	n/a	n/a	n/a	n/a	n/a	n/a	n/a	n/a	n/a	n/a	n/a	n/a	B3_05.jpg	500	0	333769	-1	333769	0	TrialProc1	B3HighSmallEDBlockList	2500	0	331270	0	331270	0	331270	2499	d	1109	332379	67.977
71	2.5	000_R01_VA_allProc	36	1	"<?xml version=""1.0""?>\n<Clock xmlns:dt=""urn:schemas-microsoft-com:datatypes""><Description dt:dt=""string"">E-Prime Primary Realtime Clock</Description><StartTime><Timestamp dt:dt=""int"">0</Timestamp><DateUtc dt:dt=""string"">2018-08-01T17:15:49Z</DateUtc></StartTime><FrequencyChanges><FrequencyChange><Frequency dt:dt=""r8"">3020400</Frequency><Timestamp dt:dt=""r8"">198874994962</Timestamp><Current dt:dt=""r8"">0</Current><DateUtc dt:dt=""string"">2018-08-01T17:15:49Z</DateUtc></FrequencyChange></FrequencyChanges></Clock>\n"	000_R01_VA_allProc-36-1	60.022	1.0.0.178	1	1307110094	Professional	2.0.10.356	2.0.10.356	08-01-2018	8/1/2018 5:15:50 PM	13:15:50	2.0.10.252	2	0	0	263295	23	263295	3998	-999999	445432	-3	423236	0	Run3Proc	2	1	2	RunList	3	HighSmallED	8000.0	1.0	337268.0	1.0	337268.0	-1.0	337267.0	0.0	B3HighSmallEDBlockProc	n/a	n/a	n/a	n/a	n/a	n/a	3.0	1.0	3.0	n/a	n/a	n/a	n/a	n/a	n/a	Run3BlockList	6	n/a	n/a	n/a	n/a	n/a	n/a	n/a	n/a	n/a	n/a	n/a	n/a	n/a	n/a	n/a	n/a	n/a	n/a	n/a	n/a	n/a	6.0	1.0	6.0	n/a	n/a	n/a	n/a	n/a	n/a	n/a	n/a	n/a	n/a	n/a	n/a	n/a	n/a	n/a	n/a	n/a	n/a	n/a	n/a	n/a	n/a	n/a	n/a	n/a	n/a	n/a	n/a	n/a	n/a	n/a	n/a	n/a	n/a	n/a	n/a	n/a	n/a	n/a	n/a	n/a	n/a	n/a	n/a	n/a	n/a	n/a	n/a	n/a	n/a	n/a	n/a	n/a	n/a	n/a	n/a	n/a	n/a	n/a	n/a	n/a	n/a	n/a	n/a	n/a	n/a	B3_06.jpg	500	0	336768	-1	336768	0	TrialProc1	B3HighSmallEDBlockList	2500	0	334269	0	334269	0	334269	2499	d	1558	335827	70.976
82	2.5	000_R01_VA_allProc	36	1	"<?xml version=""1.0""?>\n<Clock xmlns:dt=""urn:schemas-microsoft-com:datatypes""><Description dt:dt=""string"">E-Prime Primary Realtime Clock</Description><StartTime><Timestamp dt:dt=""int"">0</Timestamp><DateUtc dt:dt=""string"">2018-08-01T17:15:49Z</DateUtc></StartTime><FrequencyChanges><FrequencyChange><Frequency dt:dt=""r8"">3020400</Frequency><Timestamp dt:dt=""r8"">198874994962</Timestamp><Current dt:dt=""r8"">0</Current><DateUtc dt:dt=""string"">2018-08-01T17:15:49Z</DateUtc></FrequencyChange></FrequencyChanges></Clock>\n"	000_R01_VA_allProc-36-1	60.022	1.0.0.178	1	1307110094	Professional	2.0.10.356	2.0.10.356	08-01-2018	8/1/2018 5:15:50 PM	13:15:50	2.0.10.252	2	0	0	263295	23	263295	3998	-999999	445432	-3	423236	0	Run3Proc	2	1	2	RunList	4	OfficeSmall	8000.0	0.0	363258.0	0.0	363258.0	0.0	363258.0	0.0	F3OfficeSmallBlockProc	n/a	n/a	n/a	n/a	n/a	n/a	4.0	1.0	4.0	n/a	n/a	n/a	n/a	n/a	n/a	Run3BlockList	1	n/a	n/a	n/a	n/a	n/a	n/a	n/a	n/a	n/a	n/a	n/a	n/a	n/a	n/a	n/a	n/a	n/a	n/a	n/a	n/a	n/a	n/a	n/a	n/a	n/a	n/a	n/a	n/a	n/a	n/a	n/a	n/a	n/a	n/a	n/a	n/a	n/a	n/a	n/a	n/a	n/a	n/a	n/a	n/a	n/a	n/a	n/a	n/a	n/a	n/a	n/a	n/a	n/a	n/a	n/a	n/a	n/a	n/a	n/a	n/a	n/a	n/a	n/a	n/a	n/a	n/a	n/a	n/a	n/a	n/a	n/a	n/a	n/a	n/a	n/a	n/a	n/a	n/a	n/a	n/a	n/a	1.0	1.0	1.0	n/a	n/a	n/a	n/a	n/a	n/a	F3_01.jpg	500	0	347764	-1	347764	0	TrialProc1	F3OfficeSmallBlockList	2500	0	345265	0	345265	-2	345265	2499	d	1154	346419	81.972
85	2.5	000_R01_VA_allProc	36	1	"<?xml version=""1.0""?>\n<Clock xmlns:dt=""urn:schemas-microsoft-com:datatypes""><Description dt:dt=""string"">E-Prime Primary Realtime Clock</Description><StartTime><Timestamp dt:dt=""int"">0</Timestamp><DateUtc dt:dt=""string"">2018-08-01T17:15:49Z</DateUtc></StartTime><FrequencyChanges><FrequencyChange><Frequency dt:dt=""r8"">3020400</Frequency><Timestamp dt:dt=""r8"">198874994962</Timestamp><Current dt:dt=""r8"">0</Current><DateUtc dt:dt=""string"">2018-08-01T17:15:49Z</DateUtc></FrequencyChange></FrequencyChanges></Clock>\n"	000_R01_VA_allProc-36-1	60.022	1.0.0.178	1	1307110094	Professional	2.0.10.356	2.0.10.356	08-01-2018	8/1/2018 5:15:50 PM	13:15:50	2.0.10.252	2	0	0	263295	23	263295	3998	-999999	445432	-3	423236	0	Run3Proc	2	1	2	RunList	4	OfficeSmall	8000.0	0.0	363258.0	0.0	363258.0	0.0	363258.0	0.0	F3OfficeSmallBlockProc	n/a	n/a	n/a	n/a	n/a	n/a	4.0	1.0	4.0	n/a	n/a	n/a	n/a	n/a	n/a	Run3BlockList	2	n/a	n/a	n/a	n/a	n/a	n/a	n/a	n/a	n/a	n/a	n/a	n/a	n/a	n/a	n/a	n/a	n/a	n/a	n/a	n/a	n/a	n/a	n/a	n/a	n/a	n/a	n/a	n/a	n/a	n/a	n/a	n/a	n/a	n/a	n/a	n/a	n/a	n/a	n/a	n/a	n/a	n/a	n/a	n/a	n/a	n/a	n/a	n/a	n/a	n/a	n/a	n/a	n/a	n/a	n/a	n/a	n/a	n/a	n/a	n/a	n/a	n/a	n/a	n/a	n/a	n/a	n/a	n/a	n/a	n/a	n/a	n/a	n/a	n/a	n/a	n/a	n/a	n/a	n/a	n/a	n/a	2.0	1.0	2.0	n/a	n/a	n/a	n/a	n/a	n/a	F3_02.jpg	500	0	350763	0	350763	0	TrialProc1	F3OfficeSmallBlockList	2500	0	348263	0	348263	-1	348263	2500	d	820	349083	84.97
88	2.5	000_R01_VA_allProc	36	1	"<?xml version=""1.0""?>\n<Clock xmlns:dt=""urn:schemas-microsoft-com:datatypes""><Description dt:dt=""string"">E-Prime Primary Realtime Clock</Description><StartTime><Timestamp dt:dt=""int"">0</Timestamp><DateUtc dt:dt=""string"">2018-08-01T17:15:49Z</DateUtc></StartTime><FrequencyChanges><FrequencyChange><Frequency dt:dt=""r8"">3020400</Frequency><Timestamp dt:dt=""r8"">198874994962</Timestamp><Current dt:dt=""r8"">0</Current><DateUtc dt:dt=""string"">2018-08-01T17:15:49Z</DateUtc></FrequencyChange></FrequencyChanges></Clock>\n"	000_R01_VA_allProc-36-1	60.022	1.0.0.178	1	1307110094	Professional	2.0.10.356	2.0.10.356	08-01-2018	8/1/2018 5:15:50 PM	13:15:50	2.0.10.252	2	0	0	263295	23	263295	3998	-999999	445432	-3	423236	0	Run3Proc	2	1	2	RunList	4	OfficeSmall	8000.0	0.0	363258.0	0.0	363258.0	0.0	363258.0	0.0	F3OfficeSmallBlockProc	n/a	n/a	n/a	n/a	n/a	n/a	4.0	1.0	4.0	n/a	n/a	n/a	n/a	n/a	n/a	Run3BlockList	3	n/a	n/a	n/a	n/a	n/a	n/a	n/a	n/a	n/a	n/a	n/a	n/a	n/a	n/a	n/a	n/a	n/a	n/a	n/a	n/a	n/a	n/a	n/a	n/a	n/a	n/a	n/a	n/a	n/a	n/a	n/a	n/a	n/a	n/a	n/a	n/a	n/a	n/a	n/a	n/a	n/a	n/a	n/a	n/a	n/a	n/a	n/a	n/a	n/a	n/a	n/a	n/a	n/a	n/a	n/a	n/a	n/a	n/a	n/a	n/a	n/a	n/a	n/a	n/a	n/a	n/a	n/a	n/a	n/a	n/a	n/a	n/a	n/a	n/a	n/a	n/a	n/a	n/a	n/a	n/a	n/a	3.0	1.0	3.0	n/a	n/a	n/a	n/a	n/a	n/a	F3_03.jpg	500	0	353761	-1	353761	0	TrialProc1	F3OfficeSmallBlockList	2500	0	351262	0	351262	-1	351262	2499	d	1405	352667	87.969
91	2.5	000_R01_VA_allProc	36	1	"<?xml version=""1.0""?>\n<Clock xmlns:dt=""urn:schemas-microsoft-com:datatypes""><Description dt:dt=""string"">E-Prime Primary Realtime Clock</Description><StartTime><Timestamp dt:dt=""int"">0</Timestamp><DateUtc dt:dt=""string"">2018-08-01T17:15:49Z</DateUtc></StartTime><FrequencyChanges><FrequencyChange><Frequency dt:dt=""r8"">3020400</Frequency><Timestamp dt:dt=""r8"">198874994962</Timestamp><Current dt:dt=""r8"">0</Current><DateUtc dt:dt=""string"">2018-08-01T17:15:49Z</DateUtc></FrequencyChange></FrequencyChanges></Clock>\n"	000_R01_VA_allProc-36-1	60.022	1.0.0.178	1	1307110094	Professional	2.0.10.356	2.0.10.356	08-01-2018	8/1/2018 5:15:50 PM	13:15:50	2.0.10.252	2	0	0	263295	23	263295	3998	-999999	445432	-3	423236	0	Run3Proc	2	1	2	RunList	4	OfficeSmall	8000.0	0.0	363258.0	0.0	363258.0	0.0	363258.0	0.0	F3OfficeSmallBlockProc	n/a	n/a	n/a	n/a	n/a	n/a	4.0	1.0	4.0	n/a	n/a	n/a	n/a	n/a	n/a	Run3BlockList	4	n/a	n/a	n/a	n/a	n/a	n/a	n/a	n/a	n/a	n/a	n/a	n/a	n/a	n/a	n/a	n/a	n/a	n/a	n/a	n/a	n/a	n/a	n/a	n/a	n/a	n/a	n/a	n/a	n/a	n/a	n/a	n/a	n/a	n/a	n/a	n/a	n/a	n/a	n/a	n/a	n/a	n/a	n/a	n/a	n/a	n/a	n/a	n/a	n/a	n/a	n/a	n/a	n/a	n/a	n/a	n/a	n/a	n/a	n/a	n/a	n/a	n/a	n/a	n/a	n/a	n/a	n/a	n/a	n/a	n/a	n/a	n/a	n/a	n/a	n/a	n/a	n/a	n/a	n/a	n/a	n/a	4.0	1.0	4.0	n/a	n/a	n/a	n/a	n/a	n/a	F3_04.jpg	500	0	356760	-1	356760	0	TrialProc1	F3OfficeSmallBlockList	2500	0	354261	0	354261	0	354261	2499	d	1526	355787	90.968
94	2.5	000_R01_VA_allProc	36	1	"<?xml version=""1.0""?>\n<Clock xmlns:dt=""urn:schemas-microsoft-com:datatypes""><Description dt:dt=""string"">E-Prime Primary Realtime Clock</Description><StartTime><Timestamp dt:dt=""int"">0</Timestamp><DateUtc dt:dt=""string"">2018-08-01T17:15:49Z</DateUtc></StartTime><FrequencyChanges><FrequencyChange><Frequency dt:dt=""r8"">3020400</Frequency><Timestamp dt:dt=""r8"">198874994962</Timestamp><Current dt:dt=""r8"">0</Current><DateUtc dt:dt=""string"">2018-08-01T17:15:49Z</DateUtc></FrequencyChange></FrequencyChanges></Clock>\n"	000_R01_VA_allProc-36-1	60.022	1.0.0.178	1	1307110094	Professional	2.0.10.356	2.0.10.356	08-01-2018	8/1/2018 5:15:50 PM	13:15:50	2.0.10.252	2	0	0	263295	23	263295	3998	-999999	445432	-3	423236	0	Run3Proc	2	1	2	RunList	4	OfficeSmall	8000.0	0.0	363258.0	0.0	363258.0	0.0	363258.0	0.0	F3OfficeSmallBlockProc	n/a	n/a	n/a	n/a	n/a	n/a	4.0	1.0	4.0	n/a	n/a	n/a	n/a	n/a	n/a	Run3BlockList	5	n/a	n/a	n/a	n/a	n/a	n/a	n/a	n/a	n/a	n/a	n/a	n/a	n/a	n/a	n/a	n/a	n/a	n/a	n/a	n/a	n/a	n/a	n/a	n/a	n/a	n/a	n/a	n/a	n/a	n/a	n/a	n/a	n/a	n/a	n/a	n/a	n/a	n/a	n/a	n/a	n/a	n/a	n/a	n/a	n/a	n/a	n/a	n/a	n/a	n/a	n/a	n/a	n/a	n/a	n/a	n/a	n/a	n/a	n/a	n/a	n/a	n/a	n/a	n/a	n/a	n/a	n/a	n/a	n/a	n/a	n/a	n/a	n/a	n/a	n/a	n/a	n/a	n/a	n/a	n/a	n/a	5.0	1.0	5.0	n/a	n/a	n/a	n/a	n/a	n/a	F3_05.jpg	500	0	359759	-1	359759	0	TrialProc1	F3OfficeSmallBlockList	2500	0	357260	0	357260	0	357260	2499	d	2079	359339	93.967
97	2.5	000_R01_VA_allProc	36	1	"<?xml version=""1.0""?>\n<Clock xmlns:dt=""urn:schemas-microsoft-com:datatypes""><Description dt:dt=""string"">E-Prime Primary Realtime Clock</Description><StartTime><Timestamp dt:dt=""int"">0</Timestamp><DateUtc dt:dt=""string"">2018-08-01T17:15:49Z</DateUtc></StartTime><FrequencyChanges><FrequencyChange><Frequency dt:dt=""r8"">3020400</Frequency><Timestamp dt:dt=""r8"">198874994962</Timestamp><Current dt:dt=""r8"">0</Current><DateUtc dt:dt=""string"">2018-08-01T17:15:49Z</DateUtc></FrequencyChange></FrequencyChanges></Clock>\n"	000_R01_VA_allProc-36-1	60.022	1.0.0.178	1	1307110094	Professional	2.0.10.356	2.0.10.356	08-01-2018	8/1/2018 5:15:50 PM	13:15:50	2.0.10.252	2	0	0	263295	23	263295	3998	-999999	445432	-3	423236	0	Run3Proc	2	1	2	RunList	4	OfficeSmall	8000.0	0.0	363258.0	0.0	363258.0	0.0	363258.0	0.0	F3OfficeSmallBlockProc	n/a	n/a	n/a	n/a	n/a	n/a	4.0	1.0	4.0	n/a	n/a	n/a	n/a	n/a	n/a	Run3BlockList	6	n/a	n/a	n/a	n/a	n/a	n/a	n/a	n/a	n/a	n/a	n/a	n/a	n/a	n/a	n/a	n/a	n/a	n/a	n/a	n/a	n/a	n/a	n/a	n/a	n/a	n/a	n/a	n/a	n/a	n/a	n/a	n/a	n/a	n/a	n/a	n/a	n/a	n/a	n/a	n/a	n/a	n/a	n/a	n/a	n/a	n/a	n/a	n/a	n/a	n/a	n/a	n/a	n/a	n/a	n/a	n/a	n/a	n/a	n/a	n/a	n/a	n/a	n/a	n/a	n/a	n/a	n/a	n/a	n/a	n/a	n/a	n/a	n/a	n/a	n/a	n/a	n/a	n/a	n/a	n/a	n/a	6.0	1.0	6.0	n/a	n/a	n/a	n/a	n/a	n/a	F3_06.jpg	500	0	362758	-1	362758	0	TrialProc1	F3OfficeSmallBlockList	2500	0	360259	0	360259	0	360259	2499	n/a	0	0	96.966
108	2.5	000_R01_VA_allProc	36	1	"<?xml version=""1.0""?>\n<Clock xmlns:dt=""urn:schemas-microsoft-com:datatypes""><Description dt:dt=""string"">E-Prime Primary Realtime Clock</Description><StartTime><Timestamp dt:dt=""int"">0</Timestamp><DateUtc dt:dt=""string"">2018-08-01T17:15:49Z</DateUtc></StartTime><FrequencyChanges><FrequencyChange><Frequency dt:dt=""r8"">3020400</Frequency><Timestamp dt:dt=""r8"">198874994962</Timestamp><Current dt:dt=""r8"">0</Current><DateUtc dt:dt=""string"">2018-08-01T17:15:49Z</DateUtc></FrequencyChange></FrequencyChanges></Clock>\n"	000_R01_VA_allProc-36-1	60.022	1.0.0.178	1	1307110094	Professional	2.0.10.356	2.0.10.356	08-01-2018	8/1/2018 5:15:50 PM	13:15:50	2.0.10.252	2	0	0	263295	23	263295	3998	-999999	445432	-3	423236	0	Run3Proc	2	1	2	RunList	5	HighLargeED	8000.0	0.0	389248.0	0.0	389248.0	-1.0	389248.0	0.0	A3HighLargeEDBlockProc	n/a	n/a	n/a	n/a	n/a	n/a	5.0	1.0	5.0	n/a	n/a	n/a	n/a	n/a	n/a	Run3BlockList	1	n/a	n/a	n/a	n/a	n/a	n/a	1.0	1.0	1.0	n/a	n/a	n/a	n/a	n/a	n/a	n/a	n/a	n/a	n/a	n/a	n/a	n/a	n/a	n/a	n/a	n/a	n/a	n/a	n/a	n/a	n/a	n/a	n/a	n/a	n/a	n/a	n/a	n/a	n/a	n/a	n/a	n/a	n/a	n/a	n/a	n/a	n/a	n/a	n/a	n/a	n/a	n/a	n/a	n/a	n/a	n/a	n/a	n/a	n/a	n/a	n/a	n/a	n/a	n/a	n/a	n/a	n/a	n/a	n/a	n/a	n/a	n/a	n/a	n/a	n/a	n/a	n/a	n/a	n/a	n/a	n/a	n/a	n/a	n/a	n/a	n/a	n/a	n/a	n/a	n/a	A3_01.jpg	500	0	373754	-1	373754	0	TrialProc1	A3HighLargeEDBlockList	2500	0	371255	0	371255	-3	371255	2499	d	979	372234	107.962
111	2.5	000_R01_VA_allProc	36	1	"<?xml version=""1.0""?>\n<Clock xmlns:dt=""urn:schemas-microsoft-com:datatypes""><Description dt:dt=""string"">E-Prime Primary Realtime Clock</Description><StartTime><Timestamp dt:dt=""int"">0</Timestamp><DateUtc dt:dt=""string"">2018-08-01T17:15:49Z</DateUtc></StartTime><FrequencyChanges><FrequencyChange><Frequency dt:dt=""r8"">3020400</Frequency><Timestamp dt:dt=""r8"">198874994962</Timestamp><Current dt:dt=""r8"">0</Current><DateUtc dt:dt=""string"">2018-08-01T17:15:49Z</DateUtc></FrequencyChange></FrequencyChanges></Clock>\n"	000_R01_VA_allProc-36-1	60.022	1.0.0.178	1	1307110094	Professional	2.0.10.356	2.0.10.356	08-01-2018	8/1/2018 5:15:50 PM	13:15:50	2.0.10.252	2	0	0	263295	23	263295	3998	-999999	445432	-3	423236	0	Run3Proc	2	1	2	RunList	5	HighLargeED	8000.0	0.0	389248.0	0.0	389248.0	-1.0	389248.0	0.0	A3HighLargeEDBlockProc	n/a	n/a	n/a	n/a	n/a	n/a	5.0	1.0	5.0	n/a	n/a	n/a	n/a	n/a	n/a	Run3BlockList	2	n/a	n/a	n/a	n/a	n/a	n/a	2.0	1.0	2.0	n/a	n/a	n/a	n/a	n/a	n/a	n/a	n/a	n/a	n/a	n/a	n/a	n/a	n/a	n/a	n/a	n/a	n/a	n/a	n/a	n/a	n/a	n/a	n/a	n/a	n/a	n/a	n/a	n/a	n/a	n/a	n/a	n/a	n/a	n/a	n/a	n/a	n/a	n/a	n/a	n/a	n/a	n/a	n/a	n/a	n/a	n/a	n/a	n/a	n/a	n/a	n/a	n/a	n/a	n/a	n/a	n/a	n/a	n/a	n/a	n/a	n/a	n/a	n/a	n/a	n/a	n/a	n/a	n/a	n/a	n/a	n/a	n/a	n/a	n/a	n/a	n/a	n/a	n/a	n/a	n/a	A3_02.jpg	500	0	376753	-1	376753	0	TrialProc1	A3HighLargeEDBlockList	2500	0	374254	0	374254	0	374254	2499	d	788	375042	110.961
114	2.5	000_R01_VA_allProc	36	1	"<?xml version=""1.0""?>\n<Clock xmlns:dt=""urn:schemas-microsoft-com:datatypes""><Description dt:dt=""string"">E-Prime Primary Realtime Clock</Description><StartTime><Timestamp dt:dt=""int"">0</Timestamp><DateUtc dt:dt=""string"">2018-08-01T17:15:49Z</DateUtc></StartTime><FrequencyChanges><FrequencyChange><Frequency dt:dt=""r8"">3020400</Frequency><Timestamp dt:dt=""r8"">198874994962</Timestamp><Current dt:dt=""r8"">0</Current><DateUtc dt:dt=""string"">2018-08-01T17:15:49Z</DateUtc></FrequencyChange></FrequencyChanges></Clock>\n"	000_R01_VA_allProc-36-1	60.022	1.0.0.178	1	1307110094	Professional	2.0.10.356	2.0.10.356	08-01-2018	8/1/2018 5:15:50 PM	13:15:50	2.0.10.252	2	0	0	263295	23	263295	3998	-999999	445432	-3	423236	0	Run3Proc	2	1	2	RunList	5	HighLargeED	8000.0	0.0	389248.0	0.0	389248.0	-1.0	389248.0	0.0	A3HighLargeEDBlockProc	n/a	n/a	n/a	n/a	n/a	n/a	5.0	1.0	5.0	n/a	n/a	n/a	n/a	n/a	n/a	Run3BlockList	3	n/a	n/a	n/a	n/a	n/a	n/a	3.0	1.0	3.0	n/a	n/a	n/a	n/a	n/a	n/a	n/a	n/a	n/a	n/a	n/a	n/a	n/a	n/a	n/a	n/a	n/a	n/a	n/a	n/a	n/a	n/a	n/a	n/a	n/a	n/a	n/a	n/a	n/a	n/a	n/a	n/a	n/a	n/a	n/a	n/a	n/a	n/a	n/a	n/a	n/a	n/a	n/a	n/a	n/a	n/a	n/a	n/a	n/a	n/a	n/a	n/a	n/a	n/a	n/a	n/a	n/a	n/a	n/a	n/a	n/a	n/a	n/a	n/a	n/a	n/a	n/a	n/a	n/a	n/a	n/a	n/a	n/a	n/a	n/a	n/a	n/a	n/a	n/a	n/a	n/a	A3_03.jpg	500	0	379752	-1	379752	0	TrialProc1	A3HighLargeEDBlockList	2500	0	377253	0	377253	0	377253	2499	d	1133	378386	113.96
117	2.5	000_R01_VA_allProc	36	1	"<?xml version=""1.0""?>\n<Clock xmlns:dt=""urn:schemas-microsoft-com:datatypes""><Description dt:dt=""string"">E-Prime Primary Realtime Clock</Description><StartTime><Timestamp dt:dt=""int"">0</Timestamp><DateUtc dt:dt=""string"">2018-08-01T17:15:49Z</DateUtc></StartTime><FrequencyChanges><FrequencyChange><Frequency dt:dt=""r8"">3020400</Frequency><Timestamp dt:dt=""r8"">198874994962</Timestamp><Current dt:dt=""r8"">0</Current><DateUtc dt:dt=""string"">2018-08-01T17:15:49Z</DateUtc></FrequencyChange></FrequencyChanges></Clock>\n"	000_R01_VA_allProc-36-1	60.022	1.0.0.178	1	1307110094	Professional	2.0.10.356	2.0.10.356	08-01-2018	8/1/2018 5:15:50 PM	13:15:50	2.0.10.252	2	0	0	263295	23	263295	3998	-999999	445432	-3	423236	0	Run3Proc	2	1	2	RunList	5	HighLargeED	8000.0	0.0	389248.0	0.0	389248.0	-1.0	389248.0	0.0	A3HighLargeEDBlockProc	n/a	n/a	n/a	n/a	n/a	n/a	5.0	1.0	5.0	n/a	n/a	n/a	n/a	n/a	n/a	Run3BlockList	4	n/a	n/a	n/a	n/a	n/a	n/a	4.0	1.0	4.0	n/a	n/a	n/a	n/a	n/a	n/a	n/a	n/a	n/a	n/a	n/a	n/a	n/a	n/a	n/a	n/a	n/a	n/a	n/a	n/a	n/a	n/a	n/a	n/a	n/a	n/a	n/a	n/a	n/a	n/a	n/a	n/a	n/a	n/a	n/a	n/a	n/a	n/a	n/a	n/a	n/a	n/a	n/a	n/a	n/a	n/a	n/a	n/a	n/a	n/a	n/a	n/a	n/a	n/a	n/a	n/a	n/a	n/a	n/a	n/a	n/a	n/a	n/a	n/a	n/a	n/a	n/a	n/a	n/a	n/a	n/a	n/a	n/a	n/a	n/a	n/a	n/a	n/a	n/a	n/a	n/a	A3_04.jpg	500	0	382751	-1	382751	0	TrialProc1	A3HighLargeEDBlockList	2500	0	380252	0	380252	0	380252	2499	d	846	381098	116.959
120	2.5	000_R01_VA_allProc	36	1	"<?xml version=""1.0""?>\n<Clock xmlns:dt=""urn:schemas-microsoft-com:datatypes""><Description dt:dt=""string"">E-Prime Primary Realtime Clock</Description><StartTime><Timestamp dt:dt=""int"">0</Timestamp><DateUtc dt:dt=""string"">2018-08-01T17:15:49Z</DateUtc></StartTime><FrequencyChanges><FrequencyChange><Frequency dt:dt=""r8"">3020400</Frequency><Timestamp dt:dt=""r8"">198874994962</Timestamp><Current dt:dt=""r8"">0</Current><DateUtc dt:dt=""string"">2018-08-01T17:15:49Z</DateUtc></FrequencyChange></FrequencyChanges></Clock>\n"	000_R01_VA_allProc-36-1	60.022	1.0.0.178	1	1307110094	Professional	2.0.10.356	2.0.10.356	08-01-2018	8/1/2018 5:15:50 PM	13:15:50	2.0.10.252	2	0	0	263295	23	263295	3998	-999999	445432	-3	423236	0	Run3Proc	2	1	2	RunList	5	HighLargeED	8000.0	0.0	389248.0	0.0	389248.0	-1.0	389248.0	0.0	A3HighLargeEDBlockProc	n/a	n/a	n/a	n/a	n/a	n/a	5.0	1.0	5.0	n/a	n/a	n/a	n/a	n/a	n/a	Run3BlockList	5	n/a	n/a	n/a	n/a	n/a	n/a	5.0	1.0	5.0	n/a	n/a	n/a	n/a	n/a	n/a	n/a	n/a	n/a	n/a	n/a	n/a	n/a	n/a	n/a	n/a	n/a	n/a	n/a	n/a	n/a	n/a	n/a	n/a	n/a	n/a	n/a	n/a	n/a	n/a	n/a	n/a	n/a	n/a	n/a	n/a	n/a	n/a	n/a	n/a	n/a	n/a	n/a	n/a	n/a	n/a	n/a	n/a	n/a	n/a	n/a	n/a	n/a	n/a	n/a	n/a	n/a	n/a	n/a	n/a	n/a	n/a	n/a	n/a	n/a	n/a	n/a	n/a	n/a	n/a	n/a	n/a	n/a	n/a	n/a	n/a	n/a	n/a	n/a	n/a	n/a	A3_05.jpg	500	0	385750	-1	385750	0	TrialProc1	A3HighLargeEDBlockList	2500	0	383251	0	383251	0	383251	2499	d	839	384090	119.958
123	2.5	000_R01_VA_allProc	36	1	"<?xml version=""1.0""?>\n<Clock xmlns:dt=""urn:schemas-microsoft-com:datatypes""><Description dt:dt=""string"">E-Prime Primary Realtime Clock</Description><StartTime><Timestamp dt:dt=""int"">0</Timestamp><DateUtc dt:dt=""string"">2018-08-01T17:15:49Z</DateUtc></StartTime><FrequencyChanges><FrequencyChange><Frequency dt:dt=""r8"">3020400</Frequency><Timestamp dt:dt=""r8"">198874994962</Timestamp><Current dt:dt=""r8"">0</Current><DateUtc dt:dt=""string"">2018-08-01T17:15:49Z</DateUtc></FrequencyChange></FrequencyChanges></Clock>\n"	000_R01_VA_allProc-36-1	60.022	1.0.0.178	1	1307110094	Professional	2.0.10.356	2.0.10.356	08-01-2018	8/1/2018 5:15:50 PM	13:15:50	2.0.10.252	2	0	0	263295	23	263295	3998	-999999	445432	-3	423236	0	Run3Proc	2	1	2	RunList	5	HighLargeED	8000.0	0.0	389248.0	0.0	389248.0	-1.0	389248.0	0.0	A3HighLargeEDBlockProc	n/a	n/a	n/a	n/a	n/a	n/a	5.0	1.0	5.0	n/a	n/a	n/a	n/a	n/a	n/a	Run3BlockList	6	n/a	n/a	n/a	n/a	n/a	n/a	6.0	1.0	6.0	n/a	n/a	n/a	n/a	n/a	n/a	n/a	n/a	n/a	n/a	n/a	n/a	n/a	n/a	n/a	n/a	n/a	n/a	n/a	n/a	n/a	n/a	n/a	n/a	n/a	n/a	n/a	n/a	n/a	n/a	n/a	n/a	n/a	n/a	n/a	n/a	n/a	n/a	n/a	n/a	n/a	n/a	n/a	n/a	n/a	n/a	n/a	n/a	n/a	n/a	n/a	n/a	n/a	n/a	n/a	n/a	n/a	n/a	n/a	n/a	n/a	n/a	n/a	n/a	n/a	n/a	n/a	n/a	n/a	n/a	n/a	n/a	n/a	n/a	n/a	n/a	n/a	n/a	n/a	n/a	n/a	A3_06.jpg	500	0	388749	0	388749	0	TrialProc1	A3HighLargeEDBlockList	2500	0	386249	0	386249	-1	386249	2500	d	673	386922	122.956
134	2.5	000_R01_VA_allProc	36	1	"<?xml version=""1.0""?>\n<Clock xmlns:dt=""urn:schemas-microsoft-com:datatypes""><Description dt:dt=""string"">E-Prime Primary Realtime Clock</Description><StartTime><Timestamp dt:dt=""int"">0</Timestamp><DateUtc dt:dt=""string"">2018-08-01T17:15:49Z</DateUtc></StartTime><FrequencyChanges><FrequencyChange><Frequency dt:dt=""r8"">3020400</Frequency><Timestamp dt:dt=""r8"">198874994962</Timestamp><Current dt:dt=""r8"">0</Current><DateUtc dt:dt=""string"">2018-08-01T17:15:49Z</DateUtc></FrequencyChange></FrequencyChanges></Clock>\n"	000_R01_VA_allProc-36-1	60.022	1.0.0.178	1	1307110094	Professional	2.0.10.356	2.0.10.356	08-01-2018	8/1/2018 5:15:50 PM	13:15:50	2.0.10.252	2	0	0	263295	23	263295	3998	-999999	445432	-3	423236	0	Run3Proc	2	1	2	RunList	6	LowLargeED	8000.0	0.0	415239.0	0.0	415239.0	0.0	415239.0	0.0	C3LowLargeEDBlockProc	n/a	n/a	n/a	n/a	n/a	n/a	6.0	1.0	6.0	n/a	n/a	n/a	n/a	n/a	n/a	Run3BlockList	1	n/a	n/a	n/a	n/a	n/a	n/a	n/a	n/a	n/a	n/a	n/a	n/a	n/a	n/a	n/a	n/a	n/a	n/a	n/a	n/a	n/a	n/a	n/a	n/a	n/a	n/a	n/a	n/a	n/a	n/a	n/a	n/a	n/a	n/a	n/a	n/a	1.0	1.0	1.0	n/a	n/a	n/a	n/a	n/a	n/a	n/a	n/a	n/a	n/a	n/a	n/a	n/a	n/a	n/a	n/a	n/a	n/a	n/a	n/a	n/a	n/a	n/a	n/a	n/a	n/a	n/a	n/a	n/a	n/a	n/a	n/a	n/a	n/a	n/a	n/a	n/a	n/a	n/a	n/a	n/a	n/a	n/a	n/a	n/a	n/a	n/a	n/a	n/a	n/a	n/a	C3_01.jpg	500	1	399745	-1	399744	0	TrialProc1	C3LowLargeEDBlockList	2500	0	397245	0	397245	-3	397245	2499	d	1485	398730	133.952
137	2.5	000_R01_VA_allProc	36	1	"<?xml version=""1.0""?>\n<Clock xmlns:dt=""urn:schemas-microsoft-com:datatypes""><Description dt:dt=""string"">E-Prime Primary Realtime Clock</Description><StartTime><Timestamp dt:dt=""int"">0</Timestamp><DateUtc dt:dt=""string"">2018-08-01T17:15:49Z</DateUtc></StartTime><FrequencyChanges><FrequencyChange><Frequency dt:dt=""r8"">3020400</Frequency><Timestamp dt:dt=""r8"">198874994962</Timestamp><Current dt:dt=""r8"">0</Current><DateUtc dt:dt=""string"">2018-08-01T17:15:49Z</DateUtc></FrequencyChange></FrequencyChanges></Clock>\n"	000_R01_VA_allProc-36-1	60.022	1.0.0.178	1	1307110094	Professional	2.0.10.356	2.0.10.356	08-01-2018	8/1/2018 5:15:50 PM	13:15:50	2.0.10.252	2	0	0	263295	23	263295	3998	-999999	445432	-3	423236	0	Run3Proc	2	1	2	RunList	6	LowLargeED	8000.0	0.0	415239.0	0.0	415239.0	0.0	415239.0	0.0	C3LowLargeEDBlockProc	n/a	n/a	n/a	n/a	n/a	n/a	6.0	1.0	6.0	n/a	n/a	n/a	n/a	n/a	n/a	Run3BlockList	2	n/a	n/a	n/a	n/a	n/a	n/a	n/a	n/a	n/a	n/a	n/a	n/a	n/a	n/a	n/a	n/a	n/a	n/a	n/a	n/a	n/a	n/a	n/a	n/a	n/a	n/a	n/a	n/a	n/a	n/a	n/a	n/a	n/a	n/a	n/a	n/a	2.0	1.0	2.0	n/a	n/a	n/a	n/a	n/a	n/a	n/a	n/a	n/a	n/a	n/a	n/a	n/a	n/a	n/a	n/a	n/a	n/a	n/a	n/a	n/a	n/a	n/a	n/a	n/a	n/a	n/a	n/a	n/a	n/a	n/a	n/a	n/a	n/a	n/a	n/a	n/a	n/a	n/a	n/a	n/a	n/a	n/a	n/a	n/a	n/a	n/a	n/a	n/a	n/a	n/a	C3_02.jpg	500	0	402743	-1	402743	0	TrialProc1	C3LowLargeEDBlockList	2500	0	400244	0	400244	0	400244	2499	c	2062	402306	136.951
140	2.5	000_R01_VA_allProc	36	1	"<?xml version=""1.0""?>\n<Clock xmlns:dt=""urn:schemas-microsoft-com:datatypes""><Description dt:dt=""string"">E-Prime Primary Realtime Clock</Description><StartTime><Timestamp dt:dt=""int"">0</Timestamp><DateUtc dt:dt=""string"">2018-08-01T17:15:49Z</DateUtc></StartTime><FrequencyChanges><FrequencyChange><Frequency dt:dt=""r8"">3020400</Frequency><Timestamp dt:dt=""r8"">198874994962</Timestamp><Current dt:dt=""r8"">0</Current><DateUtc dt:dt=""string"">2018-08-01T17:15:49Z</DateUtc></FrequencyChange></FrequencyChanges></Clock>\n"	000_R01_VA_allProc-36-1	60.022	1.0.0.178	1	1307110094	Professional	2.0.10.356	2.0.10.356	08-01-2018	8/1/2018 5:15:50 PM	13:15:50	2.0.10.252	2	0	0	263295	23	263295	3998	-999999	445432	-3	423236	0	Run3Proc	2	1	2	RunList	6	LowLargeED	8000.0	0.0	415239.0	0.0	415239.0	0.0	415239.0	0.0	C3LowLargeEDBlockProc	n/a	n/a	n/a	n/a	n/a	n/a	6.0	1.0	6.0	n/a	n/a	n/a	n/a	n/a	n/a	Run3BlockList	3	n/a	n/a	n/a	n/a	n/a	n/a	n/a	n/a	n/a	n/a	n/a	n/a	n/a	n/a	n/a	n/a	n/a	n/a	n/a	n/a	n/a	n/a	n/a	n/a	n/a	n/a	n/a	n/a	n/a	n/a	n/a	n/a	n/a	n/a	n/a	n/a	3.0	1.0	3.0	n/a	n/a	n/a	n/a	n/a	n/a	n/a	n/a	n/a	n/a	n/a	n/a	n/a	n/a	n/a	n/a	n/a	n/a	n/a	n/a	n/a	n/a	n/a	n/a	n/a	n/a	n/a	n/a	n/a	n/a	n/a	n/a	n/a	n/a	n/a	n/a	n/a	n/a	n/a	n/a	n/a	n/a	n/a	n/a	n/a	n/a	n/a	n/a	n/a	n/a	n/a	C3_03.jpg	500	0	405742	-1	405742	0	TrialProc1	C3LowLargeEDBlockList	2500	0	403243	0	403243	0	403243	2499	d	951	404194	139.95
143	2.5	000_R01_VA_allProc	36	1	"<?xml version=""1.0""?>\n<Clock xmlns:dt=""urn:schemas-microsoft-com:datatypes""><Description dt:dt=""string"">E-Prime Primary Realtime Clock</Description><StartTime><Timestamp dt:dt=""int"">0</Timestamp><DateUtc dt:dt=""string"">2018-08-01T17:15:49Z</DateUtc></StartTime><FrequencyChanges><FrequencyChange><Frequency dt:dt=""r8"">3020400</Frequency><Timestamp dt:dt=""r8"">198874994962</Timestamp><Current dt:dt=""r8"">0</Current><DateUtc dt:dt=""string"">2018-08-01T17:15:49Z</DateUtc></FrequencyChange></FrequencyChanges></Clock>\n"	000_R01_VA_allProc-36-1	60.022	1.0.0.178	1	1307110094	Professional	2.0.10.356	2.0.10.356	08-01-2018	8/1/2018 5:15:50 PM	13:15:50	2.0.10.252	2	0	0	263295	23	263295	3998	-999999	445432	-3	423236	0	Run3Proc	2	1	2	RunList	6	LowLargeED	8000.0	0.0	415239.0	0.0	415239.0	0.0	415239.0	0.0	C3LowLargeEDBlockProc	n/a	n/a	n/a	n/a	n/a	n/a	6.0	1.0	6.0	n/a	n/a	n/a	n/a	n/a	n/a	Run3BlockList	4	n/a	n/a	n/a	n/a	n/a	n/a	n/a	n/a	n/a	n/a	n/a	n/a	n/a	n/a	n/a	n/a	n/a	n/a	n/a	n/a	n/a	n/a	n/a	n/a	n/a	n/a	n/a	n/a	n/a	n/a	n/a	n/a	n/a	n/a	n/a	n/a	4.0	1.0	4.0	n/a	n/a	n/a	n/a	n/a	n/a	n/a	n/a	n/a	n/a	n/a	n/a	n/a	n/a	n/a	n/a	n/a	n/a	n/a	n/a	n/a	n/a	n/a	n/a	n/a	n/a	n/a	n/a	n/a	n/a	n/a	n/a	n/a	n/a	n/a	n/a	n/a	n/a	n/a	n/a	n/a	n/a	n/a	n/a	n/a	n/a	n/a	n/a	n/a	n/a	n/a	C3_04.jpg	500	0	408741	-1	408741	0	TrialProc1	C3LowLargeEDBlockList	2500	0	406242	0	406242	0	406242	2499	d	912	407154	142.949
146	2.5	000_R01_VA_allProc	36	1	"<?xml version=""1.0""?>\n<Clock xmlns:dt=""urn:schemas-microsoft-com:datatypes""><Description dt:dt=""string"">E-Prime Primary Realtime Clock</Description><StartTime><Timestamp dt:dt=""int"">0</Timestamp><DateUtc dt:dt=""string"">2018-08-01T17:15:49Z</DateUtc></StartTime><FrequencyChanges><FrequencyChange><Frequency dt:dt=""r8"">3020400</Frequency><Timestamp dt:dt=""r8"">198874994962</Timestamp><Current dt:dt=""r8"">0</Current><DateUtc dt:dt=""string"">2018-08-01T17:15:49Z</DateUtc></FrequencyChange></FrequencyChanges></Clock>\n"	000_R01_VA_allProc-36-1	60.022	1.0.0.178	1	1307110094	Professional	2.0.10.356	2.0.10.356	08-01-2018	8/1/2018 5:15:50 PM	13:15:50	2.0.10.252	2	0	0	263295	23	263295	3998	-999999	445432	-3	423236	0	Run3Proc	2	1	2	RunList	6	LowLargeED	8000.0	0.0	415239.0	0.0	415239.0	0.0	415239.0	0.0	C3LowLargeEDBlockProc	n/a	n/a	n/a	n/a	n/a	n/a	6.0	1.0	6.0	n/a	n/a	n/a	n/a	n/a	n/a	Run3BlockList	5	n/a	n/a	n/a	n/a	n/a	n/a	n/a	n/a	n/a	n/a	n/a	n/a	n/a	n/a	n/a	n/a	n/a	n/a	n/a	n/a	n/a	n/a	n/a	n/a	n/a	n/a	n/a	n/a	n/a	n/a	n/a	n/a	n/a	n/a	n/a	n/a	5.0	1.0	5.0	n/a	n/a	n/a	n/a	n/a	n/a	n/a	n/a	n/a	n/a	n/a	n/a	n/a	n/a	n/a	n/a	n/a	n/a	n/a	n/a	n/a	n/a	n/a	n/a	n/a	n/a	n/a	n/a	n/a	n/a	n/a	n/a	n/a	n/a	n/a	n/a	n/a	n/a	n/a	n/a	n/a	n/a	n/a	n/a	n/a	n/a	n/a	n/a	n/a	n/a	n/a	C3_05.jpg	500	0	411740	-1	411740	0	TrialProc1	C3LowLargeEDBlockList	2500	0	409241	0	409241	0	409241	2499	d	433	409674	145.948
149	2.5	000_R01_VA_allProc	36	1	"<?xml version=""1.0""?>\n<Clock xmlns:dt=""urn:schemas-microsoft-com:datatypes""><Description dt:dt=""string"">E-Prime Primary Realtime Clock</Description><StartTime><Timestamp dt:dt=""int"">0</Timestamp><DateUtc dt:dt=""string"">2018-08-01T17:15:49Z</DateUtc></StartTime><FrequencyChanges><FrequencyChange><Frequency dt:dt=""r8"">3020400</Frequency><Timestamp dt:dt=""r8"">198874994962</Timestamp><Current dt:dt=""r8"">0</Current><DateUtc dt:dt=""string"">2018-08-01T17:15:49Z</DateUtc></FrequencyChange></FrequencyChanges></Clock>\n"	000_R01_VA_allProc-36-1	60.022	1.0.0.178	1	1307110094	Professional	2.0.10.356	2.0.10.356	08-01-2018	8/1/2018 5:15:50 PM	13:15:50	2.0.10.252	2	0	0	263295	23	263295	3998	-999999	445432	-3	423236	0	Run3Proc	2	1	2	RunList	6	LowLargeED	8000.0	0.0	415239.0	0.0	415239.0	0.0	415239.0	0.0	C3LowLargeEDBlockProc	n/a	n/a	n/a	n/a	n/a	n/a	6.0	1.0	6.0	n/a	n/a	n/a	n/a	n/a	n/a	Run3BlockList	6	n/a	n/a	n/a	n/a	n/a	n/a	n/a	n/a	n/a	n/a	n/a	n/a	n/a	n/a	n/a	n/a	n/a	n/a	n/a	n/a	n/a	n/a	n/a	n/a	n/a	n/a	n/a	n/a	n/a	n/a	n/a	n/a	n/a	n/a	n/a	n/a	6.0	1.0	6.0	n/a	n/a	n/a	n/a	n/a	n/a	n/a	n/a	n/a	n/a	n/a	n/a	n/a	n/a	n/a	n/a	n/a	n/a	n/a	n/a	n/a	n/a	n/a	n/a	n/a	n/a	n/a	n/a	n/a	n/a	n/a	n/a	n/a	n/a	n/a	n/a	n/a	n/a	n/a	n/a	n/a	n/a	n/a	n/a	n/a	n/a	n/a	n/a	n/a	n/a	n/a	C3_06.jpg	500	0	414739	-1	414739	0	TrialProc1	C3LowLargeEDBlockList	2500	0	412240	0	412240	0	412240	2499	d	1698	413938	148.947
