onset	duration	experiment_name	sub	ses	clock_information	datafile_basename	display_refreshrate	experiment_version	group	randomseed	runtime_capabilities	runtime_version	runtimeversionexpected	session_date	session_start_date_time_utc	session_time	studio_version	block	fixation2trs_durationerror	fixation2trs_offsetdelay	fixation2trs_offsettime	fixation2trs_onsetdelay	fixation2trs_onsettime	fixation2trs_onsettoonsettime	goodwork_durationerror	goodwork_finishtime	goodwork_onsetdelay	goodwork_onsettime	goodwork_onsettoonsettime	procedure_block	runlist	runlist_cycle	runlist_sample	running_block	trial	condition	interblockinterval_duration	interblockinterval_durationerror	interblockinterval_finishtime	interblockinterval_offsetdelay	interblockinterval_offsettime	interblockinterval_onsetdelay	interblockinterval_onsettime	interblockinterval_onsettoonsettime	procedure_trial	run1blocklist	run1blocklist_cycle	run1blocklist_sample	run2blocklist	run2blocklist_cycle	run2blocklist_sample	run3blocklist	run3blocklist_cycle	run3blocklist_sample	run4blocklist	run4blocklist_cycle	run4blocklist_sample	run5blocklist	run5blocklist_cycle	run5blocklist_sample	running_trial	subtrial	a1highlargeedblocklist	a1highlargeedblocklist_cycle	a1highlargeedblocklist_sample	a2highlargeedblocklist	a2highlargeedblocklist_cycle	a2highlargeedblocklist_sample	a3highlargeedblocklist	a3highlargeedblocklist_cycle	a3highlargeedblocklist_sample	a4highlargeedblocklist	a4highlargeedblocklist_cycle	a4highlargeedblocklist_sample	a5highlargeedblocklist	a5highlargeedblocklist_cycle	a5highlargeedblocklist_sample	b1highsmalledblocklist	b1highsmalledblocklist_cycle	b1highsmalledblocklist_sample	b2highsmalledblocklist	b2highsmalledblocklist_cycle	b2highsmalledblocklist_sample	b3highsmalledblocklist	b3highsmalledblocklist_cycle	b3highsmalledblocklist_sample	b4highsmalledblocklist	b4highsmalledblocklist_cycle	b4highsmalledblocklist_sample	b5highsmalledblocklist	b5highsmalledblocklist_cycle	b5highsmalledblocklist_sample	c1lowlargeedblocklist	c1lowlargeedblocklist_cycle	c1lowlargeedblocklist_sample	c2lowlargeedblocklist	c2lowlargeedblocklist_cycle	c2lowlargeedblocklist_sample	c3lowlargeedblocklist	c3lowlargeedblocklist_cycle	c3lowlargeedblocklist_sample	c4lowlargeedblocklist	c4lowlargeedblocklist_cycle	c4lowlargeedblocklist_sample	c5lowlargeedblocklist	c5lowlargeedblocklist_cycle	c5lowlargeedblocklist_sample	d1lowsmalledblocklist	d1lowsmalledblocklist_cycle	d1lowsmalledblocklist_sample	d2highlargeedblocklist	d2highlargeedblocklist_cycle	d2highlargeedblocklist_sample	d3lowsmalledblocklist	d3lowsmalledblocklist_cycle	d3lowsmalledblocklist_sample	d4lowsmalledblocklist	d4lowsmalledblocklist_cycle	d4lowsmalledblocklist_sample	d5lowsmalledblocklist	d5lowsmalledblocklist_cycle	d5lowsmalledblocklist_sample	e1officelargeblocklist	e1officelargeblocklist_cycle	e1officelargeblocklist_sample	e2officelargeblocklist	e2officelargeblocklist_cycle	e2officelargeblocklist_sample	e3officelargeblocklist	e3officelargeblocklist_cycle	e3officelargeblocklist_sample	e4officelargeblocklist	e4officelargeblocklist_cycle	e4officelargeblocklist_sample	e5officelargeblocklist	e5officelargeblocklist_cycle	e5officelargeblocklist_sample	f1officesmallblocklist	f1officesmallblocklist_cycle	f1officesmallblocklist_sample	f2officesmallblocklist	f2officesmallblocklist_cycle	f2officesmallblocklist_sample	f3officesmallblocklist	f3officesmallblocklist_cycle	f3officesmallblocklist_sample	f4officesmallblocklist	f4officesmallblocklist_cycle	f4officesmallblocklist_sample	f5officesmallblocklist	f5officesmallblocklist_cycle	f5officesmallblocklist_sample	filename	isi_duration	isi_durationerror	isi_finishtime	isi_onsetdelay	isi_onsettime	isi_onsettoonsettime	procedure_subtrial	running_subtrial	stimslide_duration	stimslide_durationerror	stimslide_finishtime	stimslide_offsetdelay	stimslide_offsettime	stimslide_onsetdelay	stimslide_onsettime	stimslide_onsettoonsettime	stimslide_resp	stimslide_rt	stimslide_rttime	onset_unrounded
4	2.5	000_R01_VA_allProc	101	1	"<?xml version=""1.0""?>\n<Clock xmlns:dt=""urn:schemas-microsoft-com:datatypes""><Description dt:dt=""string"">E-Prime Primary Realtime Clock</Description><StartTime><Timestamp dt:dt=""int"">0</Timestamp><DateUtc dt:dt=""string"">2021-05-04T20:21:24Z</DateUtc></StartTime><FrequencyChanges><FrequencyChange><Frequency dt:dt=""r8"">3020410</Frequency><Timestamp dt:dt=""r8"">62732191922</Timestamp><Current dt:dt=""r8"">0</Current><DateUtc dt:dt=""string"">2021-05-04T20:21:24Z</DateUtc></FrequencyChange></FrequencyChanges></Clock>\n"	000_R01_VA_allProc-101-1	60.001	1.0.0.229	1	-1691732384	Professional	2.0.10.356	2.0.10.356	05-04-2021	5/4/2021 8:21:24 PM	16:21:24	2.0.10.252	5	0	0	830187	12	830187	4000	-999999	993049	0	990484	0	Run2Proc	5	1	5	RunList	1	HighSmallED	8000	0	852187	0	852187	0	852187	0	B2HighSmallEDBlockProc	n/a	n/a	n/a	1.0	1.0	1.0	n/a	n/a	n/a	n/a	n/a	n/a	n/a	n/a	n/a	Run2BlockList	1	n/a	n/a	n/a	n/a	n/a	n/a	n/a	n/a	n/a	n/a	n/a	n/a	n/a	n/a	n/a	n/a	n/a	n/a	1.0	1.0	1.0	n/a	n/a	n/a	n/a	n/a	n/a	n/a	n/a	n/a	n/a	n/a	n/a	n/a	n/a	n/a	n/a	n/a	n/a	n/a	n/a	n/a	n/a	n/a	n/a	n/a	n/a	n/a	n/a	n/a	n/a	n/a	n/a	n/a	n/a	n/a	n/a	n/a	n/a	n/a	n/a	n/a	n/a	n/a	n/a	n/a	n/a	n/a	n/a	n/a	n/a	n/a	n/a	n/a	n/a	n/a	n/a	n/a	n/a	n/a	n/a	n/a	n/a	n/a	n/a	n/a	n/a	n/a	n/a	n/a	B2_01.jpg	500	0	836687	0	836687	0	TrialProc1	B2HighSmallEDBlockList	2500	0	834187	0	834187	0	834187	2500	d	2001	836188	4.0
7	2.5	000_R01_VA_allProc	101	1	"<?xml version=""1.0""?>\n<Clock xmlns:dt=""urn:schemas-microsoft-com:datatypes""><Description dt:dt=""string"">E-Prime Primary Realtime Clock</Description><StartTime><Timestamp dt:dt=""int"">0</Timestamp><DateUtc dt:dt=""string"">2021-05-04T20:21:24Z</DateUtc></StartTime><FrequencyChanges><FrequencyChange><Frequency dt:dt=""r8"">3020410</Frequency><Timestamp dt:dt=""r8"">62732191922</Timestamp><Current dt:dt=""r8"">0</Current><DateUtc dt:dt=""string"">2021-05-04T20:21:24Z</DateUtc></FrequencyChange></FrequencyChanges></Clock>\n"	000_R01_VA_allProc-101-1	60.001	1.0.0.229	1	-1691732384	Professional	2.0.10.356	2.0.10.356	05-04-2021	5/4/2021 8:21:24 PM	16:21:24	2.0.10.252	5	0	0	830187	12	830187	4000	-999999	993049	0	990484	0	Run2Proc	5	1	5	RunList	1	HighSmallED	8000	0	852187	0	852187	0	852187	0	B2HighSmallEDBlockProc	n/a	n/a	n/a	1.0	1.0	1.0	n/a	n/a	n/a	n/a	n/a	n/a	n/a	n/a	n/a	Run2BlockList	2	n/a	n/a	n/a	n/a	n/a	n/a	n/a	n/a	n/a	n/a	n/a	n/a	n/a	n/a	n/a	n/a	n/a	n/a	2.0	1.0	2.0	n/a	n/a	n/a	n/a	n/a	n/a	n/a	n/a	n/a	n/a	n/a	n/a	n/a	n/a	n/a	n/a	n/a	n/a	n/a	n/a	n/a	n/a	n/a	n/a	n/a	n/a	n/a	n/a	n/a	n/a	n/a	n/a	n/a	n/a	n/a	n/a	n/a	n/a	n/a	n/a	n/a	n/a	n/a	n/a	n/a	n/a	n/a	n/a	n/a	n/a	n/a	n/a	n/a	n/a	n/a	n/a	n/a	n/a	n/a	n/a	n/a	n/a	n/a	n/a	n/a	n/a	n/a	n/a	n/a	B2_02.jpg	500	0	839687	0	839687	0	TrialProc1	B2HighSmallEDBlockList	2500	0	837187	0	837187	0	837187	2500	d	921	838108	7.0
10	2.5	000_R01_VA_allProc	101	1	"<?xml version=""1.0""?>\n<Clock xmlns:dt=""urn:schemas-microsoft-com:datatypes""><Description dt:dt=""string"">E-Prime Primary Realtime Clock</Description><StartTime><Timestamp dt:dt=""int"">0</Timestamp><DateUtc dt:dt=""string"">2021-05-04T20:21:24Z</DateUtc></StartTime><FrequencyChanges><FrequencyChange><Frequency dt:dt=""r8"">3020410</Frequency><Timestamp dt:dt=""r8"">62732191922</Timestamp><Current dt:dt=""r8"">0</Current><DateUtc dt:dt=""string"">2021-05-04T20:21:24Z</DateUtc></FrequencyChange></FrequencyChanges></Clock>\n"	000_R01_VA_allProc-101-1	60.001	1.0.0.229	1	-1691732384	Professional	2.0.10.356	2.0.10.356	05-04-2021	5/4/2021 8:21:24 PM	16:21:24	2.0.10.252	5	0	0	830187	12	830187	4000	-999999	993049	0	990484	0	Run2Proc	5	1	5	RunList	1	HighSmallED	8000	0	852187	0	852187	0	852187	0	B2HighSmallEDBlockProc	n/a	n/a	n/a	1.0	1.0	1.0	n/a	n/a	n/a	n/a	n/a	n/a	n/a	n/a	n/a	Run2BlockList	3	n/a	n/a	n/a	n/a	n/a	n/a	n/a	n/a	n/a	n/a	n/a	n/a	n/a	n/a	n/a	n/a	n/a	n/a	3.0	1.0	3.0	n/a	n/a	n/a	n/a	n/a	n/a	n/a	n/a	n/a	n/a	n/a	n/a	n/a	n/a	n/a	n/a	n/a	n/a	n/a	n/a	n/a	n/a	n/a	n/a	n/a	n/a	n/a	n/a	n/a	n/a	n/a	n/a	n/a	n/a	n/a	n/a	n/a	n/a	n/a	n/a	n/a	n/a	n/a	n/a	n/a	n/a	n/a	n/a	n/a	n/a	n/a	n/a	n/a	n/a	n/a	n/a	n/a	n/a	n/a	n/a	n/a	n/a	n/a	n/a	n/a	n/a	n/a	n/a	n/a	B2_03.jpg	500	0	842687	0	842687	0	TrialProc1	B2HighSmallEDBlockList	2500	0	840187	0	840187	0	840187	2500	d	833	841020	10.0
13	2.5	000_R01_VA_allProc	101	1	"<?xml version=""1.0""?>\n<Clock xmlns:dt=""urn:schemas-microsoft-com:datatypes""><Description dt:dt=""string"">E-Prime Primary Realtime Clock</Description><StartTime><Timestamp dt:dt=""int"">0</Timestamp><DateUtc dt:dt=""string"">2021-05-04T20:21:24Z</DateUtc></StartTime><FrequencyChanges><FrequencyChange><Frequency dt:dt=""r8"">3020410</Frequency><Timestamp dt:dt=""r8"">62732191922</Timestamp><Current dt:dt=""r8"">0</Current><DateUtc dt:dt=""string"">2021-05-04T20:21:24Z</DateUtc></FrequencyChange></FrequencyChanges></Clock>\n"	000_R01_VA_allProc-101-1	60.001	1.0.0.229	1	-1691732384	Professional	2.0.10.356	2.0.10.356	05-04-2021	5/4/2021 8:21:24 PM	16:21:24	2.0.10.252	5	0	0	830187	12	830187	4000	-999999	993049	0	990484	0	Run2Proc	5	1	5	RunList	1	HighSmallED	8000	0	852187	0	852187	0	852187	0	B2HighSmallEDBlockProc	n/a	n/a	n/a	1.0	1.0	1.0	n/a	n/a	n/a	n/a	n/a	n/a	n/a	n/a	n/a	Run2BlockList	4	n/a	n/a	n/a	n/a	n/a	n/a	n/a	n/a	n/a	n/a	n/a	n/a	n/a	n/a	n/a	n/a	n/a	n/a	4.0	1.0	4.0	n/a	n/a	n/a	n/a	n/a	n/a	n/a	n/a	n/a	n/a	n/a	n/a	n/a	n/a	n/a	n/a	n/a	n/a	n/a	n/a	n/a	n/a	n/a	n/a	n/a	n/a	n/a	n/a	n/a	n/a	n/a	n/a	n/a	n/a	n/a	n/a	n/a	n/a	n/a	n/a	n/a	n/a	n/a	n/a	n/a	n/a	n/a	n/a	n/a	n/a	n/a	n/a	n/a	n/a	n/a	n/a	n/a	n/a	n/a	n/a	n/a	n/a	n/a	n/a	n/a	n/a	n/a	n/a	n/a	B2_04.jpg	500	0	845687	0	845687	0	TrialProc1	B2HighSmallEDBlockList	2500	0	843187	0	843187	0	843187	2500	d	681	843868	13.0
16	2.5	000_R01_VA_allProc	101	1	"<?xml version=""1.0""?>\n<Clock xmlns:dt=""urn:schemas-microsoft-com:datatypes""><Description dt:dt=""string"">E-Prime Primary Realtime Clock</Description><StartTime><Timestamp dt:dt=""int"">0</Timestamp><DateUtc dt:dt=""string"">2021-05-04T20:21:24Z</DateUtc></StartTime><FrequencyChanges><FrequencyChange><Frequency dt:dt=""r8"">3020410</Frequency><Timestamp dt:dt=""r8"">62732191922</Timestamp><Current dt:dt=""r8"">0</Current><DateUtc dt:dt=""string"">2021-05-04T20:21:24Z</DateUtc></FrequencyChange></FrequencyChanges></Clock>\n"	000_R01_VA_allProc-101-1	60.001	1.0.0.229	1	-1691732384	Professional	2.0.10.356	2.0.10.356	05-04-2021	5/4/2021 8:21:24 PM	16:21:24	2.0.10.252	5	0	0	830187	12	830187	4000	-999999	993049	0	990484	0	Run2Proc	5	1	5	RunList	1	HighSmallED	8000	0	852187	0	852187	0	852187	0	B2HighSmallEDBlockProc	n/a	n/a	n/a	1.0	1.0	1.0	n/a	n/a	n/a	n/a	n/a	n/a	n/a	n/a	n/a	Run2BlockList	5	n/a	n/a	n/a	n/a	n/a	n/a	n/a	n/a	n/a	n/a	n/a	n/a	n/a	n/a	n/a	n/a	n/a	n/a	5.0	1.0	5.0	n/a	n/a	n/a	n/a	n/a	n/a	n/a	n/a	n/a	n/a	n/a	n/a	n/a	n/a	n/a	n/a	n/a	n/a	n/a	n/a	n/a	n/a	n/a	n/a	n/a	n/a	n/a	n/a	n/a	n/a	n/a	n/a	n/a	n/a	n/a	n/a	n/a	n/a	n/a	n/a	n/a	n/a	n/a	n/a	n/a	n/a	n/a	n/a	n/a	n/a	n/a	n/a	n/a	n/a	n/a	n/a	n/a	n/a	n/a	n/a	n/a	n/a	n/a	n/a	n/a	n/a	n/a	n/a	n/a	B2_05.jpg	500	0	848687	0	848687	0	TrialProc1	B2HighSmallEDBlockList	2500	0	846187	0	846187	0	846187	2500	c	1601	847788	16.0
19	2.5	000_R01_VA_allProc	101	1	"<?xml version=""1.0""?>\n<Clock xmlns:dt=""urn:schemas-microsoft-com:datatypes""><Description dt:dt=""string"">E-Prime Primary Realtime Clock</Description><StartTime><Timestamp dt:dt=""int"">0</Timestamp><DateUtc dt:dt=""string"">2021-05-04T20:21:24Z</DateUtc></StartTime><FrequencyChanges><FrequencyChange><Frequency dt:dt=""r8"">3020410</Frequency><Timestamp dt:dt=""r8"">62732191922</Timestamp><Current dt:dt=""r8"">0</Current><DateUtc dt:dt=""string"">2021-05-04T20:21:24Z</DateUtc></FrequencyChange></FrequencyChanges></Clock>\n"	000_R01_VA_allProc-101-1	60.001	1.0.0.229	1	-1691732384	Professional	2.0.10.356	2.0.10.356	05-04-2021	5/4/2021 8:21:24 PM	16:21:24	2.0.10.252	5	0	0	830187	12	830187	4000	-999999	993049	0	990484	0	Run2Proc	5	1	5	RunList	1	HighSmallED	8000	0	852187	0	852187	0	852187	0	B2HighSmallEDBlockProc	n/a	n/a	n/a	1.0	1.0	1.0	n/a	n/a	n/a	n/a	n/a	n/a	n/a	n/a	n/a	Run2BlockList	6	n/a	n/a	n/a	n/a	n/a	n/a	n/a	n/a	n/a	n/a	n/a	n/a	n/a	n/a	n/a	n/a	n/a	n/a	6.0	1.0	6.0	n/a	n/a	n/a	n/a	n/a	n/a	n/a	n/a	n/a	n/a	n/a	n/a	n/a	n/a	n/a	n/a	n/a	n/a	n/a	n/a	n/a	n/a	n/a	n/a	n/a	n/a	n/a	n/a	n/a	n/a	n/a	n/a	n/a	n/a	n/a	n/a	n/a	n/a	n/a	n/a	n/a	n/a	n/a	n/a	n/a	n/a	n/a	n/a	n/a	n/a	n/a	n/a	n/a	n/a	n/a	n/a	n/a	n/a	n/a	n/a	n/a	n/a	n/a	n/a	n/a	n/a	n/a	n/a	n/a	B2_06.jpg	500	0	851687	0	851687	0	TrialProc1	B2HighSmallEDBlockList	2500	0	849187	0	849187	0	849187	2500	c	881	850068	19.0
30	2.5	000_R01_VA_allProc	101	1	"<?xml version=""1.0""?>\n<Clock xmlns:dt=""urn:schemas-microsoft-com:datatypes""><Description dt:dt=""string"">E-Prime Primary Realtime Clock</Description><StartTime><Timestamp dt:dt=""int"">0</Timestamp><DateUtc dt:dt=""string"">2021-05-04T20:21:24Z</DateUtc></StartTime><FrequencyChanges><FrequencyChange><Frequency dt:dt=""r8"">3020410</Frequency><Timestamp dt:dt=""r8"">62732191922</Timestamp><Current dt:dt=""r8"">0</Current><DateUtc dt:dt=""string"">2021-05-04T20:21:24Z</DateUtc></FrequencyChange></FrequencyChanges></Clock>\n"	000_R01_VA_allProc-101-1	60.001	1.0.0.229	1	-1691732384	Professional	2.0.10.356	2.0.10.356	05-04-2021	5/4/2021 8:21:24 PM	16:21:24	2.0.10.252	5	0	0	830187	12	830187	4000	-999999	993049	0	990484	0	Run2Proc	5	1	5	RunList	2	HighLargeED	8000	0	878486	0	878486	0	878486	0	A2HighLargeEDBlockProc	n/a	n/a	n/a	2.0	1.0	2.0	n/a	n/a	n/a	n/a	n/a	n/a	n/a	n/a	n/a	Run2BlockList	1	n/a	n/a	n/a	1.0	1.0	1.0	n/a	n/a	n/a	n/a	n/a	n/a	n/a	n/a	n/a	n/a	n/a	n/a	n/a	n/a	n/a	n/a	n/a	n/a	n/a	n/a	n/a	n/a	n/a	n/a	n/a	n/a	n/a	n/a	n/a	n/a	n/a	n/a	n/a	n/a	n/a	n/a	n/a	n/a	n/a	n/a	n/a	n/a	n/a	n/a	n/a	n/a	n/a	n/a	n/a	n/a	n/a	n/a	n/a	n/a	n/a	n/a	n/a	n/a	n/a	n/a	n/a	n/a	n/a	n/a	n/a	n/a	n/a	n/a	n/a	n/a	n/a	n/a	n/a	n/a	n/a	n/a	n/a	n/a	n/a	n/a	n/a	n/a	n/a	n/a	A2_01.jpg	500	1	862687	-1	862686	0	TrialProc1	A2HighLargeEDBlockList	2500	0	860187	0	860187	0	860187	2499	c	1648	861835	30.0
33	2.5	000_R01_VA_allProc	101	1	"<?xml version=""1.0""?>\n<Clock xmlns:dt=""urn:schemas-microsoft-com:datatypes""><Description dt:dt=""string"">E-Prime Primary Realtime Clock</Description><StartTime><Timestamp dt:dt=""int"">0</Timestamp><DateUtc dt:dt=""string"">2021-05-04T20:21:24Z</DateUtc></StartTime><FrequencyChanges><FrequencyChange><Frequency dt:dt=""r8"">3020410</Frequency><Timestamp dt:dt=""r8"">62732191922</Timestamp><Current dt:dt=""r8"">0</Current><DateUtc dt:dt=""string"">2021-05-04T20:21:24Z</DateUtc></FrequencyChange></FrequencyChanges></Clock>\n"	000_R01_VA_allProc-101-1	60.001	1.0.0.229	1	-1691732384	Professional	2.0.10.356	2.0.10.356	05-04-2021	5/4/2021 8:21:24 PM	16:21:24	2.0.10.252	5	0	0	830187	12	830187	4000	-999999	993049	0	990484	0	Run2Proc	5	1	5	RunList	2	HighLargeED	8000	0	878486	0	878486	0	878486	0	A2HighLargeEDBlockProc	n/a	n/a	n/a	2.0	1.0	2.0	n/a	n/a	n/a	n/a	n/a	n/a	n/a	n/a	n/a	Run2BlockList	2	n/a	n/a	n/a	2.0	1.0	2.0	n/a	n/a	n/a	n/a	n/a	n/a	n/a	n/a	n/a	n/a	n/a	n/a	n/a	n/a	n/a	n/a	n/a	n/a	n/a	n/a	n/a	n/a	n/a	n/a	n/a	n/a	n/a	n/a	n/a	n/a	n/a	n/a	n/a	n/a	n/a	n/a	n/a	n/a	n/a	n/a	n/a	n/a	n/a	n/a	n/a	n/a	n/a	n/a	n/a	n/a	n/a	n/a	n/a	n/a	n/a	n/a	n/a	n/a	n/a	n/a	n/a	n/a	n/a	n/a	n/a	n/a	n/a	n/a	n/a	n/a	n/a	n/a	n/a	n/a	n/a	n/a	n/a	n/a	n/a	n/a	n/a	n/a	n/a	n/a	A2_02.jpg	500	0	865686	0	865686	0	TrialProc1	A2HighLargeEDBlockList	2500	1	863187	1	863187	0	863186	2500	d	953	864139	32.998999999999995
36	2.5	000_R01_VA_allProc	101	1	"<?xml version=""1.0""?>\n<Clock xmlns:dt=""urn:schemas-microsoft-com:datatypes""><Description dt:dt=""string"">E-Prime Primary Realtime Clock</Description><StartTime><Timestamp dt:dt=""int"">0</Timestamp><DateUtc dt:dt=""string"">2021-05-04T20:21:24Z</DateUtc></StartTime><FrequencyChanges><FrequencyChange><Frequency dt:dt=""r8"">3020410</Frequency><Timestamp dt:dt=""r8"">62732191922</Timestamp><Current dt:dt=""r8"">0</Current><DateUtc dt:dt=""string"">2021-05-04T20:21:24Z</DateUtc></FrequencyChange></FrequencyChanges></Clock>\n"	000_R01_VA_allProc-101-1	60.001	1.0.0.229	1	-1691732384	Professional	2.0.10.356	2.0.10.356	05-04-2021	5/4/2021 8:21:24 PM	16:21:24	2.0.10.252	5	0	0	830187	12	830187	4000	-999999	993049	0	990484	0	Run2Proc	5	1	5	RunList	2	HighLargeED	8000	0	878486	0	878486	0	878486	0	A2HighLargeEDBlockProc	n/a	n/a	n/a	2.0	1.0	2.0	n/a	n/a	n/a	n/a	n/a	n/a	n/a	n/a	n/a	Run2BlockList	3	n/a	n/a	n/a	3.0	1.0	3.0	n/a	n/a	n/a	n/a	n/a	n/a	n/a	n/a	n/a	n/a	n/a	n/a	n/a	n/a	n/a	n/a	n/a	n/a	n/a	n/a	n/a	n/a	n/a	n/a	n/a	n/a	n/a	n/a	n/a	n/a	n/a	n/a	n/a	n/a	n/a	n/a	n/a	n/a	n/a	n/a	n/a	n/a	n/a	n/a	n/a	n/a	n/a	n/a	n/a	n/a	n/a	n/a	n/a	n/a	n/a	n/a	n/a	n/a	n/a	n/a	n/a	n/a	n/a	n/a	n/a	n/a	n/a	n/a	n/a	n/a	n/a	n/a	n/a	n/a	n/a	n/a	n/a	n/a	n/a	n/a	n/a	n/a	n/a	n/a	A2_03.jpg	500	0	868986	0	868986	0	TrialProc1	A2HighLargeEDBlockList	2500	0	866486	0	866486	300	866486	2500	c	1493	867979	36.299
39	2.5	000_R01_VA_allProc	101	1	"<?xml version=""1.0""?>\n<Clock xmlns:dt=""urn:schemas-microsoft-com:datatypes""><Description dt:dt=""string"">E-Prime Primary Realtime Clock</Description><StartTime><Timestamp dt:dt=""int"">0</Timestamp><DateUtc dt:dt=""string"">2021-05-04T20:21:24Z</DateUtc></StartTime><FrequencyChanges><FrequencyChange><Frequency dt:dt=""r8"">3020410</Frequency><Timestamp dt:dt=""r8"">62732191922</Timestamp><Current dt:dt=""r8"">0</Current><DateUtc dt:dt=""string"">2021-05-04T20:21:24Z</DateUtc></FrequencyChange></FrequencyChanges></Clock>\n"	000_R01_VA_allProc-101-1	60.001	1.0.0.229	1	-1691732384	Professional	2.0.10.356	2.0.10.356	05-04-2021	5/4/2021 8:21:24 PM	16:21:24	2.0.10.252	5	0	0	830187	12	830187	4000	-999999	993049	0	990484	0	Run2Proc	5	1	5	RunList	2	HighLargeED	8000	0	878486	0	878486	0	878486	0	A2HighLargeEDBlockProc	n/a	n/a	n/a	2.0	1.0	2.0	n/a	n/a	n/a	n/a	n/a	n/a	n/a	n/a	n/a	Run2BlockList	4	n/a	n/a	n/a	4.0	1.0	4.0	n/a	n/a	n/a	n/a	n/a	n/a	n/a	n/a	n/a	n/a	n/a	n/a	n/a	n/a	n/a	n/a	n/a	n/a	n/a	n/a	n/a	n/a	n/a	n/a	n/a	n/a	n/a	n/a	n/a	n/a	n/a	n/a	n/a	n/a	n/a	n/a	n/a	n/a	n/a	n/a	n/a	n/a	n/a	n/a	n/a	n/a	n/a	n/a	n/a	n/a	n/a	n/a	n/a	n/a	n/a	n/a	n/a	n/a	n/a	n/a	n/a	n/a	n/a	n/a	n/a	n/a	n/a	n/a	n/a	n/a	n/a	n/a	n/a	n/a	n/a	n/a	n/a	n/a	n/a	n/a	n/a	n/a	n/a	n/a	A2_04.jpg	500	0	871986	0	871986	0	TrialProc1	A2HighLargeEDBlockList	2500	0	869486	0	869486	0	869486	2500	d	2285	871771	39.299
42	2.5	000_R01_VA_allProc	101	1	"<?xml version=""1.0""?>\n<Clock xmlns:dt=""urn:schemas-microsoft-com:datatypes""><Description dt:dt=""string"">E-Prime Primary Realtime Clock</Description><StartTime><Timestamp dt:dt=""int"">0</Timestamp><DateUtc dt:dt=""string"">2021-05-04T20:21:24Z</DateUtc></StartTime><FrequencyChanges><FrequencyChange><Frequency dt:dt=""r8"">3020410</Frequency><Timestamp dt:dt=""r8"">62732191922</Timestamp><Current dt:dt=""r8"">0</Current><DateUtc dt:dt=""string"">2021-05-04T20:21:24Z</DateUtc></FrequencyChange></FrequencyChanges></Clock>\n"	000_R01_VA_allProc-101-1	60.001	1.0.0.229	1	-1691732384	Professional	2.0.10.356	2.0.10.356	05-04-2021	5/4/2021 8:21:24 PM	16:21:24	2.0.10.252	5	0	0	830187	12	830187	4000	-999999	993049	0	990484	0	Run2Proc	5	1	5	RunList	2	HighLargeED	8000	0	878486	0	878486	0	878486	0	A2HighLargeEDBlockProc	n/a	n/a	n/a	2.0	1.0	2.0	n/a	n/a	n/a	n/a	n/a	n/a	n/a	n/a	n/a	Run2BlockList	5	n/a	n/a	n/a	5.0	1.0	5.0	n/a	n/a	n/a	n/a	n/a	n/a	n/a	n/a	n/a	n/a	n/a	n/a	n/a	n/a	n/a	n/a	n/a	n/a	n/a	n/a	n/a	n/a	n/a	n/a	n/a	n/a	n/a	n/a	n/a	n/a	n/a	n/a	n/a	n/a	n/a	n/a	n/a	n/a	n/a	n/a	n/a	n/a	n/a	n/a	n/a	n/a	n/a	n/a	n/a	n/a	n/a	n/a	n/a	n/a	n/a	n/a	n/a	n/a	n/a	n/a	n/a	n/a	n/a	n/a	n/a	n/a	n/a	n/a	n/a	n/a	n/a	n/a	n/a	n/a	n/a	n/a	n/a	n/a	n/a	n/a	n/a	n/a	n/a	n/a	A2_05.jpg	500	0	874986	0	874986	0	TrialProc1	A2HighLargeEDBlockList	2500	0	872486	0	872486	0	872486	2500	c	1285	873771	42.299
45	2.5	000_R01_VA_allProc	101	1	"<?xml version=""1.0""?>\n<Clock xmlns:dt=""urn:schemas-microsoft-com:datatypes""><Description dt:dt=""string"">E-Prime Primary Realtime Clock</Description><StartTime><Timestamp dt:dt=""int"">0</Timestamp><DateUtc dt:dt=""string"">2021-05-04T20:21:24Z</DateUtc></StartTime><FrequencyChanges><FrequencyChange><Frequency dt:dt=""r8"">3020410</Frequency><Timestamp dt:dt=""r8"">62732191922</Timestamp><Current dt:dt=""r8"">0</Current><DateUtc dt:dt=""string"">2021-05-04T20:21:24Z</DateUtc></FrequencyChange></FrequencyChanges></Clock>\n"	000_R01_VA_allProc-101-1	60.001	1.0.0.229	1	-1691732384	Professional	2.0.10.356	2.0.10.356	05-04-2021	5/4/2021 8:21:24 PM	16:21:24	2.0.10.252	5	0	0	830187	12	830187	4000	-999999	993049	0	990484	0	Run2Proc	5	1	5	RunList	2	HighLargeED	8000	0	878486	0	878486	0	878486	0	A2HighLargeEDBlockProc	n/a	n/a	n/a	2.0	1.0	2.0	n/a	n/a	n/a	n/a	n/a	n/a	n/a	n/a	n/a	Run2BlockList	6	n/a	n/a	n/a	6.0	1.0	6.0	n/a	n/a	n/a	n/a	n/a	n/a	n/a	n/a	n/a	n/a	n/a	n/a	n/a	n/a	n/a	n/a	n/a	n/a	n/a	n/a	n/a	n/a	n/a	n/a	n/a	n/a	n/a	n/a	n/a	n/a	n/a	n/a	n/a	n/a	n/a	n/a	n/a	n/a	n/a	n/a	n/a	n/a	n/a	n/a	n/a	n/a	n/a	n/a	n/a	n/a	n/a	n/a	n/a	n/a	n/a	n/a	n/a	n/a	n/a	n/a	n/a	n/a	n/a	n/a	n/a	n/a	n/a	n/a	n/a	n/a	n/a	n/a	n/a	n/a	n/a	n/a	n/a	n/a	n/a	n/a	n/a	n/a	n/a	n/a	A2_06.jpg	500	0	877986	0	877986	0	TrialProc1	A2HighLargeEDBlockList	2500	0	875486	0	875486	0	875486	2500	c	1325	876811	45.299
56	2.5	000_R01_VA_allProc	101	1	"<?xml version=""1.0""?>\n<Clock xmlns:dt=""urn:schemas-microsoft-com:datatypes""><Description dt:dt=""string"">E-Prime Primary Realtime Clock</Description><StartTime><Timestamp dt:dt=""int"">0</Timestamp><DateUtc dt:dt=""string"">2021-05-04T20:21:24Z</DateUtc></StartTime><FrequencyChanges><FrequencyChange><Frequency dt:dt=""r8"">3020410</Frequency><Timestamp dt:dt=""r8"">62732191922</Timestamp><Current dt:dt=""r8"">0</Current><DateUtc dt:dt=""string"">2021-05-04T20:21:24Z</DateUtc></FrequencyChange></FrequencyChanges></Clock>\n"	000_R01_VA_allProc-101-1	60.001	1.0.0.229	1	-1691732384	Professional	2.0.10.356	2.0.10.356	05-04-2021	5/4/2021 8:21:24 PM	16:21:24	2.0.10.252	5	0	0	830187	12	830187	4000	-999999	993049	0	990484	0	Run2Proc	5	1	5	RunList	3	OfficeLarge	8000	0	904486	0	904486	0	904486	0	E2OfficeLargeBlockProc	n/a	n/a	n/a	3.0	1.0	3.0	n/a	n/a	n/a	n/a	n/a	n/a	n/a	n/a	n/a	Run2BlockList	1	n/a	n/a	n/a	n/a	n/a	n/a	n/a	n/a	n/a	n/a	n/a	n/a	n/a	n/a	n/a	n/a	n/a	n/a	n/a	n/a	n/a	n/a	n/a	n/a	n/a	n/a	n/a	n/a	n/a	n/a	n/a	n/a	n/a	n/a	n/a	n/a	n/a	n/a	n/a	n/a	n/a	n/a	n/a	n/a	n/a	n/a	n/a	n/a	n/a	n/a	n/a	n/a	n/a	n/a	n/a	n/a	n/a	n/a	n/a	n/a	n/a	n/a	n/a	1.0	1.0	1.0	n/a	n/a	n/a	n/a	n/a	n/a	n/a	n/a	n/a	n/a	n/a	n/a	n/a	n/a	n/a	n/a	n/a	n/a	n/a	n/a	n/a	n/a	n/a	n/a	E2_01.jpg	500	0	888986	0	888986	0	TrialProc1	E2OfficeLargeBlockList	2500	0	886486	0	886486	0	886486	2500	c	1517	888003	56.299
59	2.5	000_R01_VA_allProc	101	1	"<?xml version=""1.0""?>\n<Clock xmlns:dt=""urn:schemas-microsoft-com:datatypes""><Description dt:dt=""string"">E-Prime Primary Realtime Clock</Description><StartTime><Timestamp dt:dt=""int"">0</Timestamp><DateUtc dt:dt=""string"">2021-05-04T20:21:24Z</DateUtc></StartTime><FrequencyChanges><FrequencyChange><Frequency dt:dt=""r8"">3020410</Frequency><Timestamp dt:dt=""r8"">62732191922</Timestamp><Current dt:dt=""r8"">0</Current><DateUtc dt:dt=""string"">2021-05-04T20:21:24Z</DateUtc></FrequencyChange></FrequencyChanges></Clock>\n"	000_R01_VA_allProc-101-1	60.001	1.0.0.229	1	-1691732384	Professional	2.0.10.356	2.0.10.356	05-04-2021	5/4/2021 8:21:24 PM	16:21:24	2.0.10.252	5	0	0	830187	12	830187	4000	-999999	993049	0	990484	0	Run2Proc	5	1	5	RunList	3	OfficeLarge	8000	0	904486	0	904486	0	904486	0	E2OfficeLargeBlockProc	n/a	n/a	n/a	3.0	1.0	3.0	n/a	n/a	n/a	n/a	n/a	n/a	n/a	n/a	n/a	Run2BlockList	2	n/a	n/a	n/a	n/a	n/a	n/a	n/a	n/a	n/a	n/a	n/a	n/a	n/a	n/a	n/a	n/a	n/a	n/a	n/a	n/a	n/a	n/a	n/a	n/a	n/a	n/a	n/a	n/a	n/a	n/a	n/a	n/a	n/a	n/a	n/a	n/a	n/a	n/a	n/a	n/a	n/a	n/a	n/a	n/a	n/a	n/a	n/a	n/a	n/a	n/a	n/a	n/a	n/a	n/a	n/a	n/a	n/a	n/a	n/a	n/a	n/a	n/a	n/a	2.0	1.0	2.0	n/a	n/a	n/a	n/a	n/a	n/a	n/a	n/a	n/a	n/a	n/a	n/a	n/a	n/a	n/a	n/a	n/a	n/a	n/a	n/a	n/a	n/a	n/a	n/a	E2_02.jpg	500	0	891986	0	891986	0	TrialProc1	E2OfficeLargeBlockList	2500	0	889486	0	889486	0	889486	2500	c	1477	890963	59.299
62	2.5	000_R01_VA_allProc	101	1	"<?xml version=""1.0""?>\n<Clock xmlns:dt=""urn:schemas-microsoft-com:datatypes""><Description dt:dt=""string"">E-Prime Primary Realtime Clock</Description><StartTime><Timestamp dt:dt=""int"">0</Timestamp><DateUtc dt:dt=""string"">2021-05-04T20:21:24Z</DateUtc></StartTime><FrequencyChanges><FrequencyChange><Frequency dt:dt=""r8"">3020410</Frequency><Timestamp dt:dt=""r8"">62732191922</Timestamp><Current dt:dt=""r8"">0</Current><DateUtc dt:dt=""string"">2021-05-04T20:21:24Z</DateUtc></FrequencyChange></FrequencyChanges></Clock>\n"	000_R01_VA_allProc-101-1	60.001	1.0.0.229	1	-1691732384	Professional	2.0.10.356	2.0.10.356	05-04-2021	5/4/2021 8:21:24 PM	16:21:24	2.0.10.252	5	0	0	830187	12	830187	4000	-999999	993049	0	990484	0	Run2Proc	5	1	5	RunList	3	OfficeLarge	8000	0	904486	0	904486	0	904486	0	E2OfficeLargeBlockProc	n/a	n/a	n/a	3.0	1.0	3.0	n/a	n/a	n/a	n/a	n/a	n/a	n/a	n/a	n/a	Run2BlockList	3	n/a	n/a	n/a	n/a	n/a	n/a	n/a	n/a	n/a	n/a	n/a	n/a	n/a	n/a	n/a	n/a	n/a	n/a	n/a	n/a	n/a	n/a	n/a	n/a	n/a	n/a	n/a	n/a	n/a	n/a	n/a	n/a	n/a	n/a	n/a	n/a	n/a	n/a	n/a	n/a	n/a	n/a	n/a	n/a	n/a	n/a	n/a	n/a	n/a	n/a	n/a	n/a	n/a	n/a	n/a	n/a	n/a	n/a	n/a	n/a	n/a	n/a	n/a	3.0	1.0	3.0	n/a	n/a	n/a	n/a	n/a	n/a	n/a	n/a	n/a	n/a	n/a	n/a	n/a	n/a	n/a	n/a	n/a	n/a	n/a	n/a	n/a	n/a	n/a	n/a	E2_03.jpg	500	0	894986	0	894986	0	TrialProc1	E2OfficeLargeBlockList	2500	0	892486	0	892486	0	892486	2500	c	973	893459	62.299
65	2.5	000_R01_VA_allProc	101	1	"<?xml version=""1.0""?>\n<Clock xmlns:dt=""urn:schemas-microsoft-com:datatypes""><Description dt:dt=""string"">E-Prime Primary Realtime Clock</Description><StartTime><Timestamp dt:dt=""int"">0</Timestamp><DateUtc dt:dt=""string"">2021-05-04T20:21:24Z</DateUtc></StartTime><FrequencyChanges><FrequencyChange><Frequency dt:dt=""r8"">3020410</Frequency><Timestamp dt:dt=""r8"">62732191922</Timestamp><Current dt:dt=""r8"">0</Current><DateUtc dt:dt=""string"">2021-05-04T20:21:24Z</DateUtc></FrequencyChange></FrequencyChanges></Clock>\n"	000_R01_VA_allProc-101-1	60.001	1.0.0.229	1	-1691732384	Professional	2.0.10.356	2.0.10.356	05-04-2021	5/4/2021 8:21:24 PM	16:21:24	2.0.10.252	5	0	0	830187	12	830187	4000	-999999	993049	0	990484	0	Run2Proc	5	1	5	RunList	3	OfficeLarge	8000	0	904486	0	904486	0	904486	0	E2OfficeLargeBlockProc	n/a	n/a	n/a	3.0	1.0	3.0	n/a	n/a	n/a	n/a	n/a	n/a	n/a	n/a	n/a	Run2BlockList	4	n/a	n/a	n/a	n/a	n/a	n/a	n/a	n/a	n/a	n/a	n/a	n/a	n/a	n/a	n/a	n/a	n/a	n/a	n/a	n/a	n/a	n/a	n/a	n/a	n/a	n/a	n/a	n/a	n/a	n/a	n/a	n/a	n/a	n/a	n/a	n/a	n/a	n/a	n/a	n/a	n/a	n/a	n/a	n/a	n/a	n/a	n/a	n/a	n/a	n/a	n/a	n/a	n/a	n/a	n/a	n/a	n/a	n/a	n/a	n/a	n/a	n/a	n/a	4.0	1.0	4.0	n/a	n/a	n/a	n/a	n/a	n/a	n/a	n/a	n/a	n/a	n/a	n/a	n/a	n/a	n/a	n/a	n/a	n/a	n/a	n/a	n/a	n/a	n/a	n/a	E2_04.jpg	500	0	897986	0	897986	0	TrialProc1	E2OfficeLargeBlockList	2500	0	895486	0	895486	0	895486	2500	d	1325	896811	65.299
68	2.5	000_R01_VA_allProc	101	1	"<?xml version=""1.0""?>\n<Clock xmlns:dt=""urn:schemas-microsoft-com:datatypes""><Description dt:dt=""string"">E-Prime Primary Realtime Clock</Description><StartTime><Timestamp dt:dt=""int"">0</Timestamp><DateUtc dt:dt=""string"">2021-05-04T20:21:24Z</DateUtc></StartTime><FrequencyChanges><FrequencyChange><Frequency dt:dt=""r8"">3020410</Frequency><Timestamp dt:dt=""r8"">62732191922</Timestamp><Current dt:dt=""r8"">0</Current><DateUtc dt:dt=""string"">2021-05-04T20:21:24Z</DateUtc></FrequencyChange></FrequencyChanges></Clock>\n"	000_R01_VA_allProc-101-1	60.001	1.0.0.229	1	-1691732384	Professional	2.0.10.356	2.0.10.356	05-04-2021	5/4/2021 8:21:24 PM	16:21:24	2.0.10.252	5	0	0	830187	12	830187	4000	-999999	993049	0	990484	0	Run2Proc	5	1	5	RunList	3	OfficeLarge	8000	0	904486	0	904486	0	904486	0	E2OfficeLargeBlockProc	n/a	n/a	n/a	3.0	1.0	3.0	n/a	n/a	n/a	n/a	n/a	n/a	n/a	n/a	n/a	Run2BlockList	5	n/a	n/a	n/a	n/a	n/a	n/a	n/a	n/a	n/a	n/a	n/a	n/a	n/a	n/a	n/a	n/a	n/a	n/a	n/a	n/a	n/a	n/a	n/a	n/a	n/a	n/a	n/a	n/a	n/a	n/a	n/a	n/a	n/a	n/a	n/a	n/a	n/a	n/a	n/a	n/a	n/a	n/a	n/a	n/a	n/a	n/a	n/a	n/a	n/a	n/a	n/a	n/a	n/a	n/a	n/a	n/a	n/a	n/a	n/a	n/a	n/a	n/a	n/a	5.0	1.0	5.0	n/a	n/a	n/a	n/a	n/a	n/a	n/a	n/a	n/a	n/a	n/a	n/a	n/a	n/a	n/a	n/a	n/a	n/a	n/a	n/a	n/a	n/a	n/a	n/a	E2_05.jpg	500	0	900986	0	900986	0	TrialProc1	E2OfficeLargeBlockList	2500	0	898486	0	898486	0	898486	2500	d	1317	899803	68.299
71	2.5	000_R01_VA_allProc	101	1	"<?xml version=""1.0""?>\n<Clock xmlns:dt=""urn:schemas-microsoft-com:datatypes""><Description dt:dt=""string"">E-Prime Primary Realtime Clock</Description><StartTime><Timestamp dt:dt=""int"">0</Timestamp><DateUtc dt:dt=""string"">2021-05-04T20:21:24Z</DateUtc></StartTime><FrequencyChanges><FrequencyChange><Frequency dt:dt=""r8"">3020410</Frequency><Timestamp dt:dt=""r8"">62732191922</Timestamp><Current dt:dt=""r8"">0</Current><DateUtc dt:dt=""string"">2021-05-04T20:21:24Z</DateUtc></FrequencyChange></FrequencyChanges></Clock>\n"	000_R01_VA_allProc-101-1	60.001	1.0.0.229	1	-1691732384	Professional	2.0.10.356	2.0.10.356	05-04-2021	5/4/2021 8:21:24 PM	16:21:24	2.0.10.252	5	0	0	830187	12	830187	4000	-999999	993049	0	990484	0	Run2Proc	5	1	5	RunList	3	OfficeLarge	8000	0	904486	0	904486	0	904486	0	E2OfficeLargeBlockProc	n/a	n/a	n/a	3.0	1.0	3.0	n/a	n/a	n/a	n/a	n/a	n/a	n/a	n/a	n/a	Run2BlockList	6	n/a	n/a	n/a	n/a	n/a	n/a	n/a	n/a	n/a	n/a	n/a	n/a	n/a	n/a	n/a	n/a	n/a	n/a	n/a	n/a	n/a	n/a	n/a	n/a	n/a	n/a	n/a	n/a	n/a	n/a	n/a	n/a	n/a	n/a	n/a	n/a	n/a	n/a	n/a	n/a	n/a	n/a	n/a	n/a	n/a	n/a	n/a	n/a	n/a	n/a	n/a	n/a	n/a	n/a	n/a	n/a	n/a	n/a	n/a	n/a	n/a	n/a	n/a	6.0	1.0	6.0	n/a	n/a	n/a	n/a	n/a	n/a	n/a	n/a	n/a	n/a	n/a	n/a	n/a	n/a	n/a	n/a	n/a	n/a	n/a	n/a	n/a	n/a	n/a	n/a	E2_06.jpg	500	0	903986	0	903986	0	TrialProc1	E2OfficeLargeBlockList	2500	0	901486	0	901486	0	901486	2500	c	597	902083	71.299
82	2.5	000_R01_VA_allProc	101	1	"<?xml version=""1.0""?>\n<Clock xmlns:dt=""urn:schemas-microsoft-com:datatypes""><Description dt:dt=""string"">E-Prime Primary Realtime Clock</Description><StartTime><Timestamp dt:dt=""int"">0</Timestamp><DateUtc dt:dt=""string"">2021-05-04T20:21:24Z</DateUtc></StartTime><FrequencyChanges><FrequencyChange><Frequency dt:dt=""r8"">3020410</Frequency><Timestamp dt:dt=""r8"">62732191922</Timestamp><Current dt:dt=""r8"">0</Current><DateUtc dt:dt=""string"">2021-05-04T20:21:24Z</DateUtc></FrequencyChange></FrequencyChanges></Clock>\n"	000_R01_VA_allProc-101-1	60.001	1.0.0.229	1	-1691732384	Professional	2.0.10.356	2.0.10.356	05-04-2021	5/4/2021 8:21:24 PM	16:21:24	2.0.10.252	5	0	0	830187	12	830187	4000	-999999	993049	0	990484	0	Run2Proc	5	1	5	RunList	4	LowLarge	8000	0	930485	0	930485	0	930485	0	C2LowLargeEDBlockProc	n/a	n/a	n/a	4.0	1.0	4.0	n/a	n/a	n/a	n/a	n/a	n/a	n/a	n/a	n/a	Run2BlockList	1	n/a	n/a	n/a	n/a	n/a	n/a	n/a	n/a	n/a	n/a	n/a	n/a	n/a	n/a	n/a	n/a	n/a	n/a	n/a	n/a	n/a	n/a	n/a	n/a	n/a	n/a	n/a	n/a	n/a	n/a	n/a	n/a	n/a	1.0	1.0	1.0	n/a	n/a	n/a	n/a	n/a	n/a	n/a	n/a	n/a	n/a	n/a	n/a	n/a	n/a	n/a	n/a	n/a	n/a	n/a	n/a	n/a	n/a	n/a	n/a	n/a	n/a	n/a	n/a	n/a	n/a	n/a	n/a	n/a	n/a	n/a	n/a	n/a	n/a	n/a	n/a	n/a	n/a	n/a	n/a	n/a	n/a	n/a	n/a	n/a	n/a	n/a	n/a	n/a	n/a	C2_01.jpg	500	0	914985	0	914985	0	TrialProc1	C2LowLargeEDBlockList	2500	0	912485	0	912485	-1	912485	2500	c	1261	913746	82.298
85	2.5	000_R01_VA_allProc	101	1	"<?xml version=""1.0""?>\n<Clock xmlns:dt=""urn:schemas-microsoft-com:datatypes""><Description dt:dt=""string"">E-Prime Primary Realtime Clock</Description><StartTime><Timestamp dt:dt=""int"">0</Timestamp><DateUtc dt:dt=""string"">2021-05-04T20:21:24Z</DateUtc></StartTime><FrequencyChanges><FrequencyChange><Frequency dt:dt=""r8"">3020410</Frequency><Timestamp dt:dt=""r8"">62732191922</Timestamp><Current dt:dt=""r8"">0</Current><DateUtc dt:dt=""string"">2021-05-04T20:21:24Z</DateUtc></FrequencyChange></FrequencyChanges></Clock>\n"	000_R01_VA_allProc-101-1	60.001	1.0.0.229	1	-1691732384	Professional	2.0.10.356	2.0.10.356	05-04-2021	5/4/2021 8:21:24 PM	16:21:24	2.0.10.252	5	0	0	830187	12	830187	4000	-999999	993049	0	990484	0	Run2Proc	5	1	5	RunList	4	LowLarge	8000	0	930485	0	930485	0	930485	0	C2LowLargeEDBlockProc	n/a	n/a	n/a	4.0	1.0	4.0	n/a	n/a	n/a	n/a	n/a	n/a	n/a	n/a	n/a	Run2BlockList	2	n/a	n/a	n/a	n/a	n/a	n/a	n/a	n/a	n/a	n/a	n/a	n/a	n/a	n/a	n/a	n/a	n/a	n/a	n/a	n/a	n/a	n/a	n/a	n/a	n/a	n/a	n/a	n/a	n/a	n/a	n/a	n/a	n/a	2.0	1.0	2.0	n/a	n/a	n/a	n/a	n/a	n/a	n/a	n/a	n/a	n/a	n/a	n/a	n/a	n/a	n/a	n/a	n/a	n/a	n/a	n/a	n/a	n/a	n/a	n/a	n/a	n/a	n/a	n/a	n/a	n/a	n/a	n/a	n/a	n/a	n/a	n/a	n/a	n/a	n/a	n/a	n/a	n/a	n/a	n/a	n/a	n/a	n/a	n/a	n/a	n/a	n/a	n/a	n/a	n/a	C2_02.jpg	500	0	917985	0	917985	0	TrialProc1	C2LowLargeEDBlockList	2500	0	915485	0	915485	0	915485	2500	c	1677	917162	85.298
88	2.5	000_R01_VA_allProc	101	1	"<?xml version=""1.0""?>\n<Clock xmlns:dt=""urn:schemas-microsoft-com:datatypes""><Description dt:dt=""string"">E-Prime Primary Realtime Clock</Description><StartTime><Timestamp dt:dt=""int"">0</Timestamp><DateUtc dt:dt=""string"">2021-05-04T20:21:24Z</DateUtc></StartTime><FrequencyChanges><FrequencyChange><Frequency dt:dt=""r8"">3020410</Frequency><Timestamp dt:dt=""r8"">62732191922</Timestamp><Current dt:dt=""r8"">0</Current><DateUtc dt:dt=""string"">2021-05-04T20:21:24Z</DateUtc></FrequencyChange></FrequencyChanges></Clock>\n"	000_R01_VA_allProc-101-1	60.001	1.0.0.229	1	-1691732384	Professional	2.0.10.356	2.0.10.356	05-04-2021	5/4/2021 8:21:24 PM	16:21:24	2.0.10.252	5	0	0	830187	12	830187	4000	-999999	993049	0	990484	0	Run2Proc	5	1	5	RunList	4	LowLarge	8000	0	930485	0	930485	0	930485	0	C2LowLargeEDBlockProc	n/a	n/a	n/a	4.0	1.0	4.0	n/a	n/a	n/a	n/a	n/a	n/a	n/a	n/a	n/a	Run2BlockList	3	n/a	n/a	n/a	n/a	n/a	n/a	n/a	n/a	n/a	n/a	n/a	n/a	n/a	n/a	n/a	n/a	n/a	n/a	n/a	n/a	n/a	n/a	n/a	n/a	n/a	n/a	n/a	n/a	n/a	n/a	n/a	n/a	n/a	3.0	1.0	3.0	n/a	n/a	n/a	n/a	n/a	n/a	n/a	n/a	n/a	n/a	n/a	n/a	n/a	n/a	n/a	n/a	n/a	n/a	n/a	n/a	n/a	n/a	n/a	n/a	n/a	n/a	n/a	n/a	n/a	n/a	n/a	n/a	n/a	n/a	n/a	n/a	n/a	n/a	n/a	n/a	n/a	n/a	n/a	n/a	n/a	n/a	n/a	n/a	n/a	n/a	n/a	n/a	n/a	n/a	C2_03.jpg	500	0	920985	0	920985	0	TrialProc1	C2LowLargeEDBlockList	2500	0	918485	0	918485	0	918485	2500	c	1149	919634	88.298
91	2.5	000_R01_VA_allProc	101	1	"<?xml version=""1.0""?>\n<Clock xmlns:dt=""urn:schemas-microsoft-com:datatypes""><Description dt:dt=""string"">E-Prime Primary Realtime Clock</Description><StartTime><Timestamp dt:dt=""int"">0</Timestamp><DateUtc dt:dt=""string"">2021-05-04T20:21:24Z</DateUtc></StartTime><FrequencyChanges><FrequencyChange><Frequency dt:dt=""r8"">3020410</Frequency><Timestamp dt:dt=""r8"">62732191922</Timestamp><Current dt:dt=""r8"">0</Current><DateUtc dt:dt=""string"">2021-05-04T20:21:24Z</DateUtc></FrequencyChange></FrequencyChanges></Clock>\n"	000_R01_VA_allProc-101-1	60.001	1.0.0.229	1	-1691732384	Professional	2.0.10.356	2.0.10.356	05-04-2021	5/4/2021 8:21:24 PM	16:21:24	2.0.10.252	5	0	0	830187	12	830187	4000	-999999	993049	0	990484	0	Run2Proc	5	1	5	RunList	4	LowLarge	8000	0	930485	0	930485	0	930485	0	C2LowLargeEDBlockProc	n/a	n/a	n/a	4.0	1.0	4.0	n/a	n/a	n/a	n/a	n/a	n/a	n/a	n/a	n/a	Run2BlockList	4	n/a	n/a	n/a	n/a	n/a	n/a	n/a	n/a	n/a	n/a	n/a	n/a	n/a	n/a	n/a	n/a	n/a	n/a	n/a	n/a	n/a	n/a	n/a	n/a	n/a	n/a	n/a	n/a	n/a	n/a	n/a	n/a	n/a	4.0	1.0	4.0	n/a	n/a	n/a	n/a	n/a	n/a	n/a	n/a	n/a	n/a	n/a	n/a	n/a	n/a	n/a	n/a	n/a	n/a	n/a	n/a	n/a	n/a	n/a	n/a	n/a	n/a	n/a	n/a	n/a	n/a	n/a	n/a	n/a	n/a	n/a	n/a	n/a	n/a	n/a	n/a	n/a	n/a	n/a	n/a	n/a	n/a	n/a	n/a	n/a	n/a	n/a	n/a	n/a	n/a	C2_04.jpg	500	0	923985	0	923985	0	TrialProc1	C2LowLargeEDBlockList	2500	0	921485	0	921485	0	921485	2500	d	1309	922794	91.298
94	2.5	000_R01_VA_allProc	101	1	"<?xml version=""1.0""?>\n<Clock xmlns:dt=""urn:schemas-microsoft-com:datatypes""><Description dt:dt=""string"">E-Prime Primary Realtime Clock</Description><StartTime><Timestamp dt:dt=""int"">0</Timestamp><DateUtc dt:dt=""string"">2021-05-04T20:21:24Z</DateUtc></StartTime><FrequencyChanges><FrequencyChange><Frequency dt:dt=""r8"">3020410</Frequency><Timestamp dt:dt=""r8"">62732191922</Timestamp><Current dt:dt=""r8"">0</Current><DateUtc dt:dt=""string"">2021-05-04T20:21:24Z</DateUtc></FrequencyChange></FrequencyChanges></Clock>\n"	000_R01_VA_allProc-101-1	60.001	1.0.0.229	1	-1691732384	Professional	2.0.10.356	2.0.10.356	05-04-2021	5/4/2021 8:21:24 PM	16:21:24	2.0.10.252	5	0	0	830187	12	830187	4000	-999999	993049	0	990484	0	Run2Proc	5	1	5	RunList	4	LowLarge	8000	0	930485	0	930485	0	930485	0	C2LowLargeEDBlockProc	n/a	n/a	n/a	4.0	1.0	4.0	n/a	n/a	n/a	n/a	n/a	n/a	n/a	n/a	n/a	Run2BlockList	5	n/a	n/a	n/a	n/a	n/a	n/a	n/a	n/a	n/a	n/a	n/a	n/a	n/a	n/a	n/a	n/a	n/a	n/a	n/a	n/a	n/a	n/a	n/a	n/a	n/a	n/a	n/a	n/a	n/a	n/a	n/a	n/a	n/a	5.0	1.0	5.0	n/a	n/a	n/a	n/a	n/a	n/a	n/a	n/a	n/a	n/a	n/a	n/a	n/a	n/a	n/a	n/a	n/a	n/a	n/a	n/a	n/a	n/a	n/a	n/a	n/a	n/a	n/a	n/a	n/a	n/a	n/a	n/a	n/a	n/a	n/a	n/a	n/a	n/a	n/a	n/a	n/a	n/a	n/a	n/a	n/a	n/a	n/a	n/a	n/a	n/a	n/a	n/a	n/a	n/a	C2_05.jpg	500	0	926985	0	926985	0	TrialProc1	C2LowLargeEDBlockList	2500	0	924485	0	924485	0	924485	2500	c	1021	925506	94.298
97	2.5	000_R01_VA_allProc	101	1	"<?xml version=""1.0""?>\n<Clock xmlns:dt=""urn:schemas-microsoft-com:datatypes""><Description dt:dt=""string"">E-Prime Primary Realtime Clock</Description><StartTime><Timestamp dt:dt=""int"">0</Timestamp><DateUtc dt:dt=""string"">2021-05-04T20:21:24Z</DateUtc></StartTime><FrequencyChanges><FrequencyChange><Frequency dt:dt=""r8"">3020410</Frequency><Timestamp dt:dt=""r8"">62732191922</Timestamp><Current dt:dt=""r8"">0</Current><DateUtc dt:dt=""string"">2021-05-04T20:21:24Z</DateUtc></FrequencyChange></FrequencyChanges></Clock>\n"	000_R01_VA_allProc-101-1	60.001	1.0.0.229	1	-1691732384	Professional	2.0.10.356	2.0.10.356	05-04-2021	5/4/2021 8:21:24 PM	16:21:24	2.0.10.252	5	0	0	830187	12	830187	4000	-999999	993049	0	990484	0	Run2Proc	5	1	5	RunList	4	LowLarge	8000	0	930485	0	930485	0	930485	0	C2LowLargeEDBlockProc	n/a	n/a	n/a	4.0	1.0	4.0	n/a	n/a	n/a	n/a	n/a	n/a	n/a	n/a	n/a	Run2BlockList	6	n/a	n/a	n/a	n/a	n/a	n/a	n/a	n/a	n/a	n/a	n/a	n/a	n/a	n/a	n/a	n/a	n/a	n/a	n/a	n/a	n/a	n/a	n/a	n/a	n/a	n/a	n/a	n/a	n/a	n/a	n/a	n/a	n/a	6.0	1.0	6.0	n/a	n/a	n/a	n/a	n/a	n/a	n/a	n/a	n/a	n/a	n/a	n/a	n/a	n/a	n/a	n/a	n/a	n/a	n/a	n/a	n/a	n/a	n/a	n/a	n/a	n/a	n/a	n/a	n/a	n/a	n/a	n/a	n/a	n/a	n/a	n/a	n/a	n/a	n/a	n/a	n/a	n/a	n/a	n/a	n/a	n/a	n/a	n/a	n/a	n/a	n/a	n/a	n/a	n/a	C2_06.jpg	500	0	929985	0	929985	0	TrialProc1	C2LowLargeEDBlockList	2500	0	927485	0	927485	0	927485	2500	c	1213	928698	97.298
108	2.5	000_R01_VA_allProc	101	1	"<?xml version=""1.0""?>\n<Clock xmlns:dt=""urn:schemas-microsoft-com:datatypes""><Description dt:dt=""string"">E-Prime Primary Realtime Clock</Description><StartTime><Timestamp dt:dt=""int"">0</Timestamp><DateUtc dt:dt=""string"">2021-05-04T20:21:24Z</DateUtc></StartTime><FrequencyChanges><FrequencyChange><Frequency dt:dt=""r8"">3020410</Frequency><Timestamp dt:dt=""r8"">62732191922</Timestamp><Current dt:dt=""r8"">0</Current><DateUtc dt:dt=""string"">2021-05-04T20:21:24Z</DateUtc></FrequencyChange></FrequencyChanges></Clock>\n"	000_R01_VA_allProc-101-1	60.001	1.0.0.229	1	-1691732384	Professional	2.0.10.356	2.0.10.356	05-04-2021	5/4/2021 8:21:24 PM	16:21:24	2.0.10.252	5	0	0	830187	12	830187	4000	-999999	993049	0	990484	0	Run2Proc	5	1	5	RunList	5	LowSmall	8000	0	956484	0	956484	0	956484	0	D2LowSmallEDBlockProc	n/a	n/a	n/a	5.0	1.0	5.0	n/a	n/a	n/a	n/a	n/a	n/a	n/a	n/a	n/a	Run2BlockList	1	n/a	n/a	n/a	n/a	n/a	n/a	n/a	n/a	n/a	n/a	n/a	n/a	n/a	n/a	n/a	n/a	n/a	n/a	n/a	n/a	n/a	n/a	n/a	n/a	n/a	n/a	n/a	n/a	n/a	n/a	n/a	n/a	n/a	n/a	n/a	n/a	n/a	n/a	n/a	n/a	n/a	n/a	n/a	n/a	n/a	n/a	n/a	n/a	1.0	1.0	1.0	n/a	n/a	n/a	n/a	n/a	n/a	n/a	n/a	n/a	n/a	n/a	n/a	n/a	n/a	n/a	n/a	n/a	n/a	n/a	n/a	n/a	n/a	n/a	n/a	n/a	n/a	n/a	n/a	n/a	n/a	n/a	n/a	n/a	n/a	n/a	n/a	n/a	n/a	n/a	D2_01.jpg	500	0	940985	0	940985	0	TrialProc1	D2HighLargeEDBlockList	2500	0	938485	0	938485	0	938485	2500	c	949	939434	108.298
111	2.5	000_R01_VA_allProc	101	1	"<?xml version=""1.0""?>\n<Clock xmlns:dt=""urn:schemas-microsoft-com:datatypes""><Description dt:dt=""string"">E-Prime Primary Realtime Clock</Description><StartTime><Timestamp dt:dt=""int"">0</Timestamp><DateUtc dt:dt=""string"">2021-05-04T20:21:24Z</DateUtc></StartTime><FrequencyChanges><FrequencyChange><Frequency dt:dt=""r8"">3020410</Frequency><Timestamp dt:dt=""r8"">62732191922</Timestamp><Current dt:dt=""r8"">0</Current><DateUtc dt:dt=""string"">2021-05-04T20:21:24Z</DateUtc></FrequencyChange></FrequencyChanges></Clock>\n"	000_R01_VA_allProc-101-1	60.001	1.0.0.229	1	-1691732384	Professional	2.0.10.356	2.0.10.356	05-04-2021	5/4/2021 8:21:24 PM	16:21:24	2.0.10.252	5	0	0	830187	12	830187	4000	-999999	993049	0	990484	0	Run2Proc	5	1	5	RunList	5	LowSmall	8000	0	956484	0	956484	0	956484	0	D2LowSmallEDBlockProc	n/a	n/a	n/a	5.0	1.0	5.0	n/a	n/a	n/a	n/a	n/a	n/a	n/a	n/a	n/a	Run2BlockList	2	n/a	n/a	n/a	n/a	n/a	n/a	n/a	n/a	n/a	n/a	n/a	n/a	n/a	n/a	n/a	n/a	n/a	n/a	n/a	n/a	n/a	n/a	n/a	n/a	n/a	n/a	n/a	n/a	n/a	n/a	n/a	n/a	n/a	n/a	n/a	n/a	n/a	n/a	n/a	n/a	n/a	n/a	n/a	n/a	n/a	n/a	n/a	n/a	2.0	1.0	2.0	n/a	n/a	n/a	n/a	n/a	n/a	n/a	n/a	n/a	n/a	n/a	n/a	n/a	n/a	n/a	n/a	n/a	n/a	n/a	n/a	n/a	n/a	n/a	n/a	n/a	n/a	n/a	n/a	n/a	n/a	n/a	n/a	n/a	n/a	n/a	n/a	n/a	n/a	n/a	D2_02.jpg	500	0	943985	0	943985	0	TrialProc1	D2HighLargeEDBlockList	2500	0	941485	0	941485	0	941485	2500	d	2125	943610	111.298
114	2.5	000_R01_VA_allProc	101	1	"<?xml version=""1.0""?>\n<Clock xmlns:dt=""urn:schemas-microsoft-com:datatypes""><Description dt:dt=""string"">E-Prime Primary Realtime Clock</Description><StartTime><Timestamp dt:dt=""int"">0</Timestamp><DateUtc dt:dt=""string"">2021-05-04T20:21:24Z</DateUtc></StartTime><FrequencyChanges><FrequencyChange><Frequency dt:dt=""r8"">3020410</Frequency><Timestamp dt:dt=""r8"">62732191922</Timestamp><Current dt:dt=""r8"">0</Current><DateUtc dt:dt=""string"">2021-05-04T20:21:24Z</DateUtc></FrequencyChange></FrequencyChanges></Clock>\n"	000_R01_VA_allProc-101-1	60.001	1.0.0.229	1	-1691732384	Professional	2.0.10.356	2.0.10.356	05-04-2021	5/4/2021 8:21:24 PM	16:21:24	2.0.10.252	5	0	0	830187	12	830187	4000	-999999	993049	0	990484	0	Run2Proc	5	1	5	RunList	5	LowSmall	8000	0	956484	0	956484	0	956484	0	D2LowSmallEDBlockProc	n/a	n/a	n/a	5.0	1.0	5.0	n/a	n/a	n/a	n/a	n/a	n/a	n/a	n/a	n/a	Run2BlockList	3	n/a	n/a	n/a	n/a	n/a	n/a	n/a	n/a	n/a	n/a	n/a	n/a	n/a	n/a	n/a	n/a	n/a	n/a	n/a	n/a	n/a	n/a	n/a	n/a	n/a	n/a	n/a	n/a	n/a	n/a	n/a	n/a	n/a	n/a	n/a	n/a	n/a	n/a	n/a	n/a	n/a	n/a	n/a	n/a	n/a	n/a	n/a	n/a	3.0	1.0	3.0	n/a	n/a	n/a	n/a	n/a	n/a	n/a	n/a	n/a	n/a	n/a	n/a	n/a	n/a	n/a	n/a	n/a	n/a	n/a	n/a	n/a	n/a	n/a	n/a	n/a	n/a	n/a	n/a	n/a	n/a	n/a	n/a	n/a	n/a	n/a	n/a	n/a	n/a	n/a	D2_03.jpg	500	0	946985	0	946985	0	TrialProc1	D2HighLargeEDBlockList	2500	0	944485	0	944485	0	944485	2500	c	829	945314	114.298
117	2.5	000_R01_VA_allProc	101	1	"<?xml version=""1.0""?>\n<Clock xmlns:dt=""urn:schemas-microsoft-com:datatypes""><Description dt:dt=""string"">E-Prime Primary Realtime Clock</Description><StartTime><Timestamp dt:dt=""int"">0</Timestamp><DateUtc dt:dt=""string"">2021-05-04T20:21:24Z</DateUtc></StartTime><FrequencyChanges><FrequencyChange><Frequency dt:dt=""r8"">3020410</Frequency><Timestamp dt:dt=""r8"">62732191922</Timestamp><Current dt:dt=""r8"">0</Current><DateUtc dt:dt=""string"">2021-05-04T20:21:24Z</DateUtc></FrequencyChange></FrequencyChanges></Clock>\n"	000_R01_VA_allProc-101-1	60.001	1.0.0.229	1	-1691732384	Professional	2.0.10.356	2.0.10.356	05-04-2021	5/4/2021 8:21:24 PM	16:21:24	2.0.10.252	5	0	0	830187	12	830187	4000	-999999	993049	0	990484	0	Run2Proc	5	1	5	RunList	5	LowSmall	8000	0	956484	0	956484	0	956484	0	D2LowSmallEDBlockProc	n/a	n/a	n/a	5.0	1.0	5.0	n/a	n/a	n/a	n/a	n/a	n/a	n/a	n/a	n/a	Run2BlockList	4	n/a	n/a	n/a	n/a	n/a	n/a	n/a	n/a	n/a	n/a	n/a	n/a	n/a	n/a	n/a	n/a	n/a	n/a	n/a	n/a	n/a	n/a	n/a	n/a	n/a	n/a	n/a	n/a	n/a	n/a	n/a	n/a	n/a	n/a	n/a	n/a	n/a	n/a	n/a	n/a	n/a	n/a	n/a	n/a	n/a	n/a	n/a	n/a	4.0	1.0	4.0	n/a	n/a	n/a	n/a	n/a	n/a	n/a	n/a	n/a	n/a	n/a	n/a	n/a	n/a	n/a	n/a	n/a	n/a	n/a	n/a	n/a	n/a	n/a	n/a	n/a	n/a	n/a	n/a	n/a	n/a	n/a	n/a	n/a	n/a	n/a	n/a	n/a	n/a	n/a	D2_04.jpg	500	1	949985	-1	949984	0	TrialProc1	D2HighLargeEDBlockList	2500	0	947485	0	947485	0	947485	2499	c	2173	949658	117.298
120	2.5	000_R01_VA_allProc	101	1	"<?xml version=""1.0""?>\n<Clock xmlns:dt=""urn:schemas-microsoft-com:datatypes""><Description dt:dt=""string"">E-Prime Primary Realtime Clock</Description><StartTime><Timestamp dt:dt=""int"">0</Timestamp><DateUtc dt:dt=""string"">2021-05-04T20:21:24Z</DateUtc></StartTime><FrequencyChanges><FrequencyChange><Frequency dt:dt=""r8"">3020410</Frequency><Timestamp dt:dt=""r8"">62732191922</Timestamp><Current dt:dt=""r8"">0</Current><DateUtc dt:dt=""string"">2021-05-04T20:21:24Z</DateUtc></FrequencyChange></FrequencyChanges></Clock>\n"	000_R01_VA_allProc-101-1	60.001	1.0.0.229	1	-1691732384	Professional	2.0.10.356	2.0.10.356	05-04-2021	5/4/2021 8:21:24 PM	16:21:24	2.0.10.252	5	0	0	830187	12	830187	4000	-999999	993049	0	990484	0	Run2Proc	5	1	5	RunList	5	LowSmall	8000	0	956484	0	956484	0	956484	0	D2LowSmallEDBlockProc	n/a	n/a	n/a	5.0	1.0	5.0	n/a	n/a	n/a	n/a	n/a	n/a	n/a	n/a	n/a	Run2BlockList	5	n/a	n/a	n/a	n/a	n/a	n/a	n/a	n/a	n/a	n/a	n/a	n/a	n/a	n/a	n/a	n/a	n/a	n/a	n/a	n/a	n/a	n/a	n/a	n/a	n/a	n/a	n/a	n/a	n/a	n/a	n/a	n/a	n/a	n/a	n/a	n/a	n/a	n/a	n/a	n/a	n/a	n/a	n/a	n/a	n/a	n/a	n/a	n/a	5.0	1.0	5.0	n/a	n/a	n/a	n/a	n/a	n/a	n/a	n/a	n/a	n/a	n/a	n/a	n/a	n/a	n/a	n/a	n/a	n/a	n/a	n/a	n/a	n/a	n/a	n/a	n/a	n/a	n/a	n/a	n/a	n/a	n/a	n/a	n/a	n/a	n/a	n/a	n/a	n/a	n/a	D2_05.jpg	500	1	952985	-1	952984	0	TrialProc1	D2HighLargeEDBlockList	2500	0	950485	0	950485	1	950485	2499	c	1021	951506	120.298
123	2.5	000_R01_VA_allProc	101	1	"<?xml version=""1.0""?>\n<Clock xmlns:dt=""urn:schemas-microsoft-com:datatypes""><Description dt:dt=""string"">E-Prime Primary Realtime Clock</Description><StartTime><Timestamp dt:dt=""int"">0</Timestamp><DateUtc dt:dt=""string"">2021-05-04T20:21:24Z</DateUtc></StartTime><FrequencyChanges><FrequencyChange><Frequency dt:dt=""r8"">3020410</Frequency><Timestamp dt:dt=""r8"">62732191922</Timestamp><Current dt:dt=""r8"">0</Current><DateUtc dt:dt=""string"">2021-05-04T20:21:24Z</DateUtc></FrequencyChange></FrequencyChanges></Clock>\n"	000_R01_VA_allProc-101-1	60.001	1.0.0.229	1	-1691732384	Professional	2.0.10.356	2.0.10.356	05-04-2021	5/4/2021 8:21:24 PM	16:21:24	2.0.10.252	5	0	0	830187	12	830187	4000	-999999	993049	0	990484	0	Run2Proc	5	1	5	RunList	5	LowSmall	8000	0	956484	0	956484	0	956484	0	D2LowSmallEDBlockProc	n/a	n/a	n/a	5.0	1.0	5.0	n/a	n/a	n/a	n/a	n/a	n/a	n/a	n/a	n/a	Run2BlockList	6	n/a	n/a	n/a	n/a	n/a	n/a	n/a	n/a	n/a	n/a	n/a	n/a	n/a	n/a	n/a	n/a	n/a	n/a	n/a	n/a	n/a	n/a	n/a	n/a	n/a	n/a	n/a	n/a	n/a	n/a	n/a	n/a	n/a	n/a	n/a	n/a	n/a	n/a	n/a	n/a	n/a	n/a	n/a	n/a	n/a	n/a	n/a	n/a	6.0	1.0	6.0	n/a	n/a	n/a	n/a	n/a	n/a	n/a	n/a	n/a	n/a	n/a	n/a	n/a	n/a	n/a	n/a	n/a	n/a	n/a	n/a	n/a	n/a	n/a	n/a	n/a	n/a	n/a	n/a	n/a	n/a	n/a	n/a	n/a	n/a	n/a	n/a	n/a	n/a	n/a	D2_06.jpg	500	0	955984	0	955984	0	TrialProc1	D2HighLargeEDBlockList	2500	1	953485	1	953485	0	953484	2500	d	1014	954498	123.297
134	2.5	000_R01_VA_allProc	101	1	"<?xml version=""1.0""?>\n<Clock xmlns:dt=""urn:schemas-microsoft-com:datatypes""><Description dt:dt=""string"">E-Prime Primary Realtime Clock</Description><StartTime><Timestamp dt:dt=""int"">0</Timestamp><DateUtc dt:dt=""string"">2021-05-04T20:21:24Z</DateUtc></StartTime><FrequencyChanges><FrequencyChange><Frequency dt:dt=""r8"">3020410</Frequency><Timestamp dt:dt=""r8"">62732191922</Timestamp><Current dt:dt=""r8"">0</Current><DateUtc dt:dt=""string"">2021-05-04T20:21:24Z</DateUtc></FrequencyChange></FrequencyChanges></Clock>\n"	000_R01_VA_allProc-101-1	60.001	1.0.0.229	1	-1691732384	Professional	2.0.10.356	2.0.10.356	05-04-2021	5/4/2021 8:21:24 PM	16:21:24	2.0.10.252	5	0	0	830187	12	830187	4000	-999999	993049	0	990484	0	Run2Proc	5	1	5	RunList	6	OfficeSmall	8000	0	982484	0	982484	0	982484	0	F2OfficeSmallBlockProc	n/a	n/a	n/a	6.0	1.0	6.0	n/a	n/a	n/a	n/a	n/a	n/a	n/a	n/a	n/a	Run2BlockList	1	n/a	n/a	n/a	n/a	n/a	n/a	n/a	n/a	n/a	n/a	n/a	n/a	n/a	n/a	n/a	n/a	n/a	n/a	n/a	n/a	n/a	n/a	n/a	n/a	n/a	n/a	n/a	n/a	n/a	n/a	n/a	n/a	n/a	n/a	n/a	n/a	n/a	n/a	n/a	n/a	n/a	n/a	n/a	n/a	n/a	n/a	n/a	n/a	n/a	n/a	n/a	n/a	n/a	n/a	n/a	n/a	n/a	n/a	n/a	n/a	n/a	n/a	n/a	n/a	n/a	n/a	n/a	n/a	n/a	n/a	n/a	n/a	n/a	n/a	n/a	n/a	n/a	n/a	1.0	1.0	1.0	n/a	n/a	n/a	n/a	n/a	n/a	n/a	n/a	n/a	F2_01.jpg	500	0	966984	0	966984	0	TrialProc1	F2OfficeSmallBlockList	2500	0	964484	0	964484	0	964484	2500	c	1525	966009	134.297
137	2.5	000_R01_VA_allProc	101	1	"<?xml version=""1.0""?>\n<Clock xmlns:dt=""urn:schemas-microsoft-com:datatypes""><Description dt:dt=""string"">E-Prime Primary Realtime Clock</Description><StartTime><Timestamp dt:dt=""int"">0</Timestamp><DateUtc dt:dt=""string"">2021-05-04T20:21:24Z</DateUtc></StartTime><FrequencyChanges><FrequencyChange><Frequency dt:dt=""r8"">3020410</Frequency><Timestamp dt:dt=""r8"">62732191922</Timestamp><Current dt:dt=""r8"">0</Current><DateUtc dt:dt=""string"">2021-05-04T20:21:24Z</DateUtc></FrequencyChange></FrequencyChanges></Clock>\n"	000_R01_VA_allProc-101-1	60.001	1.0.0.229	1	-1691732384	Professional	2.0.10.356	2.0.10.356	05-04-2021	5/4/2021 8:21:24 PM	16:21:24	2.0.10.252	5	0	0	830187	12	830187	4000	-999999	993049	0	990484	0	Run2Proc	5	1	5	RunList	6	OfficeSmall	8000	0	982484	0	982484	0	982484	0	F2OfficeSmallBlockProc	n/a	n/a	n/a	6.0	1.0	6.0	n/a	n/a	n/a	n/a	n/a	n/a	n/a	n/a	n/a	Run2BlockList	2	n/a	n/a	n/a	n/a	n/a	n/a	n/a	n/a	n/a	n/a	n/a	n/a	n/a	n/a	n/a	n/a	n/a	n/a	n/a	n/a	n/a	n/a	n/a	n/a	n/a	n/a	n/a	n/a	n/a	n/a	n/a	n/a	n/a	n/a	n/a	n/a	n/a	n/a	n/a	n/a	n/a	n/a	n/a	n/a	n/a	n/a	n/a	n/a	n/a	n/a	n/a	n/a	n/a	n/a	n/a	n/a	n/a	n/a	n/a	n/a	n/a	n/a	n/a	n/a	n/a	n/a	n/a	n/a	n/a	n/a	n/a	n/a	n/a	n/a	n/a	n/a	n/a	n/a	2.0	1.0	2.0	n/a	n/a	n/a	n/a	n/a	n/a	n/a	n/a	n/a	F2_02.jpg	500	0	969984	0	969984	0	TrialProc1	F2OfficeSmallBlockList	2500	0	967484	0	967484	0	967484	2500	c	1037	968521	137.297
140	2.5	000_R01_VA_allProc	101	1	"<?xml version=""1.0""?>\n<Clock xmlns:dt=""urn:schemas-microsoft-com:datatypes""><Description dt:dt=""string"">E-Prime Primary Realtime Clock</Description><StartTime><Timestamp dt:dt=""int"">0</Timestamp><DateUtc dt:dt=""string"">2021-05-04T20:21:24Z</DateUtc></StartTime><FrequencyChanges><FrequencyChange><Frequency dt:dt=""r8"">3020410</Frequency><Timestamp dt:dt=""r8"">62732191922</Timestamp><Current dt:dt=""r8"">0</Current><DateUtc dt:dt=""string"">2021-05-04T20:21:24Z</DateUtc></FrequencyChange></FrequencyChanges></Clock>\n"	000_R01_VA_allProc-101-1	60.001	1.0.0.229	1	-1691732384	Professional	2.0.10.356	2.0.10.356	05-04-2021	5/4/2021 8:21:24 PM	16:21:24	2.0.10.252	5	0	0	830187	12	830187	4000	-999999	993049	0	990484	0	Run2Proc	5	1	5	RunList	6	OfficeSmall	8000	0	982484	0	982484	0	982484	0	F2OfficeSmallBlockProc	n/a	n/a	n/a	6.0	1.0	6.0	n/a	n/a	n/a	n/a	n/a	n/a	n/a	n/a	n/a	Run2BlockList	3	n/a	n/a	n/a	n/a	n/a	n/a	n/a	n/a	n/a	n/a	n/a	n/a	n/a	n/a	n/a	n/a	n/a	n/a	n/a	n/a	n/a	n/a	n/a	n/a	n/a	n/a	n/a	n/a	n/a	n/a	n/a	n/a	n/a	n/a	n/a	n/a	n/a	n/a	n/a	n/a	n/a	n/a	n/a	n/a	n/a	n/a	n/a	n/a	n/a	n/a	n/a	n/a	n/a	n/a	n/a	n/a	n/a	n/a	n/a	n/a	n/a	n/a	n/a	n/a	n/a	n/a	n/a	n/a	n/a	n/a	n/a	n/a	n/a	n/a	n/a	n/a	n/a	n/a	3.0	1.0	3.0	n/a	n/a	n/a	n/a	n/a	n/a	n/a	n/a	n/a	F2_03.jpg	500	0	972984	0	972984	0	TrialProc1	F2OfficeSmallBlockList	2500	0	970484	0	970484	0	970484	2500	c	837	971321	140.297
143	2.5	000_R01_VA_allProc	101	1	"<?xml version=""1.0""?>\n<Clock xmlns:dt=""urn:schemas-microsoft-com:datatypes""><Description dt:dt=""string"">E-Prime Primary Realtime Clock</Description><StartTime><Timestamp dt:dt=""int"">0</Timestamp><DateUtc dt:dt=""string"">2021-05-04T20:21:24Z</DateUtc></StartTime><FrequencyChanges><FrequencyChange><Frequency dt:dt=""r8"">3020410</Frequency><Timestamp dt:dt=""r8"">62732191922</Timestamp><Current dt:dt=""r8"">0</Current><DateUtc dt:dt=""string"">2021-05-04T20:21:24Z</DateUtc></FrequencyChange></FrequencyChanges></Clock>\n"	000_R01_VA_allProc-101-1	60.001	1.0.0.229	1	-1691732384	Professional	2.0.10.356	2.0.10.356	05-04-2021	5/4/2021 8:21:24 PM	16:21:24	2.0.10.252	5	0	0	830187	12	830187	4000	-999999	993049	0	990484	0	Run2Proc	5	1	5	RunList	6	OfficeSmall	8000	0	982484	0	982484	0	982484	0	F2OfficeSmallBlockProc	n/a	n/a	n/a	6.0	1.0	6.0	n/a	n/a	n/a	n/a	n/a	n/a	n/a	n/a	n/a	Run2BlockList	4	n/a	n/a	n/a	n/a	n/a	n/a	n/a	n/a	n/a	n/a	n/a	n/a	n/a	n/a	n/a	n/a	n/a	n/a	n/a	n/a	n/a	n/a	n/a	n/a	n/a	n/a	n/a	n/a	n/a	n/a	n/a	n/a	n/a	n/a	n/a	n/a	n/a	n/a	n/a	n/a	n/a	n/a	n/a	n/a	n/a	n/a	n/a	n/a	n/a	n/a	n/a	n/a	n/a	n/a	n/a	n/a	n/a	n/a	n/a	n/a	n/a	n/a	n/a	n/a	n/a	n/a	n/a	n/a	n/a	n/a	n/a	n/a	n/a	n/a	n/a	n/a	n/a	n/a	4.0	1.0	4.0	n/a	n/a	n/a	n/a	n/a	n/a	n/a	n/a	n/a	F2_04.jpg	500	0	975984	0	975984	0	TrialProc1	F2OfficeSmallBlockList	2500	0	973484	0	973484	0	973484	2500	c	1421	974905	143.297
146	2.5	000_R01_VA_allProc	101	1	"<?xml version=""1.0""?>\n<Clock xmlns:dt=""urn:schemas-microsoft-com:datatypes""><Description dt:dt=""string"">E-Prime Primary Realtime Clock</Description><StartTime><Timestamp dt:dt=""int"">0</Timestamp><DateUtc dt:dt=""string"">2021-05-04T20:21:24Z</DateUtc></StartTime><FrequencyChanges><FrequencyChange><Frequency dt:dt=""r8"">3020410</Frequency><Timestamp dt:dt=""r8"">62732191922</Timestamp><Current dt:dt=""r8"">0</Current><DateUtc dt:dt=""string"">2021-05-04T20:21:24Z</DateUtc></FrequencyChange></FrequencyChanges></Clock>\n"	000_R01_VA_allProc-101-1	60.001	1.0.0.229	1	-1691732384	Professional	2.0.10.356	2.0.10.356	05-04-2021	5/4/2021 8:21:24 PM	16:21:24	2.0.10.252	5	0	0	830187	12	830187	4000	-999999	993049	0	990484	0	Run2Proc	5	1	5	RunList	6	OfficeSmall	8000	0	982484	0	982484	0	982484	0	F2OfficeSmallBlockProc	n/a	n/a	n/a	6.0	1.0	6.0	n/a	n/a	n/a	n/a	n/a	n/a	n/a	n/a	n/a	Run2BlockList	5	n/a	n/a	n/a	n/a	n/a	n/a	n/a	n/a	n/a	n/a	n/a	n/a	n/a	n/a	n/a	n/a	n/a	n/a	n/a	n/a	n/a	n/a	n/a	n/a	n/a	n/a	n/a	n/a	n/a	n/a	n/a	n/a	n/a	n/a	n/a	n/a	n/a	n/a	n/a	n/a	n/a	n/a	n/a	n/a	n/a	n/a	n/a	n/a	n/a	n/a	n/a	n/a	n/a	n/a	n/a	n/a	n/a	n/a	n/a	n/a	n/a	n/a	n/a	n/a	n/a	n/a	n/a	n/a	n/a	n/a	n/a	n/a	n/a	n/a	n/a	n/a	n/a	n/a	5.0	1.0	5.0	n/a	n/a	n/a	n/a	n/a	n/a	n/a	n/a	n/a	F2_05.jpg	500	0	978984	0	978984	0	TrialProc1	F2OfficeSmallBlockList	2500	0	976484	0	976484	0	976484	2500	c	837	977321	146.297
149	2.5	000_R01_VA_allProc	101	1	"<?xml version=""1.0""?>\n<Clock xmlns:dt=""urn:schemas-microsoft-com:datatypes""><Description dt:dt=""string"">E-Prime Primary Realtime Clock</Description><StartTime><Timestamp dt:dt=""int"">0</Timestamp><DateUtc dt:dt=""string"">2021-05-04T20:21:24Z</DateUtc></StartTime><FrequencyChanges><FrequencyChange><Frequency dt:dt=""r8"">3020410</Frequency><Timestamp dt:dt=""r8"">62732191922</Timestamp><Current dt:dt=""r8"">0</Current><DateUtc dt:dt=""string"">2021-05-04T20:21:24Z</DateUtc></FrequencyChange></FrequencyChanges></Clock>\n"	000_R01_VA_allProc-101-1	60.001	1.0.0.229	1	-1691732384	Professional	2.0.10.356	2.0.10.356	05-04-2021	5/4/2021 8:21:24 PM	16:21:24	2.0.10.252	5	0	0	830187	12	830187	4000	-999999	993049	0	990484	0	Run2Proc	5	1	5	RunList	6	OfficeSmall	8000	0	982484	0	982484	0	982484	0	F2OfficeSmallBlockProc	n/a	n/a	n/a	6.0	1.0	6.0	n/a	n/a	n/a	n/a	n/a	n/a	n/a	n/a	n/a	Run2BlockList	6	n/a	n/a	n/a	n/a	n/a	n/a	n/a	n/a	n/a	n/a	n/a	n/a	n/a	n/a	n/a	n/a	n/a	n/a	n/a	n/a	n/a	n/a	n/a	n/a	n/a	n/a	n/a	n/a	n/a	n/a	n/a	n/a	n/a	n/a	n/a	n/a	n/a	n/a	n/a	n/a	n/a	n/a	n/a	n/a	n/a	n/a	n/a	n/a	n/a	n/a	n/a	n/a	n/a	n/a	n/a	n/a	n/a	n/a	n/a	n/a	n/a	n/a	n/a	n/a	n/a	n/a	n/a	n/a	n/a	n/a	n/a	n/a	n/a	n/a	n/a	n/a	n/a	n/a	6.0	1.0	6.0	n/a	n/a	n/a	n/a	n/a	n/a	n/a	n/a	n/a	F2_06.jpg	500	0	981984	0	981984	0	TrialProc1	F2OfficeSmallBlockList	2500	0	979484	0	979484	0	979484	2500	c	1445	980929	149.297
