onset	duration	experiment_name	sub	ses	clock_information	datafile_basename	display_refreshrate	experiment_version	group	randomseed	runtime_capabilities	runtime_version	runtimeversionexpected	session_date	session_start_date_time_utc	session_time	studio_version	block	fixation2trs_durationerror	fixation2trs_offsetdelay	fixation2trs_offsettime	fixation2trs_onsetdelay	fixation2trs_onsettime	fixation2trs_onsettoonsettime	goodwork_durationerror	goodwork_finishtime	goodwork_onsetdelay	goodwork_onsettime	goodwork_onsettoonsettime	procedure_block	runlist	runlist_cycle	runlist_sample	running_block	trial	condition	interblockinterval_duration	interblockinterval_durationerror	interblockinterval_finishtime	interblockinterval_offsetdelay	interblockinterval_offsettime	interblockinterval_onsetdelay	interblockinterval_onsettime	interblockinterval_onsettoonsettime	procedure_trial	run1blocklist	run1blocklist_cycle	run1blocklist_sample	run2blocklist	run2blocklist_cycle	run2blocklist_sample	run3blocklist	run3blocklist_cycle	run3blocklist_sample	run4blocklist	run4blocklist_cycle	run4blocklist_sample	run5blocklist	run5blocklist_cycle	run5blocklist_sample	running_trial	subtrial	a1highlargeedblocklist	a1highlargeedblocklist_cycle	a1highlargeedblocklist_sample	a2highlargeedblocklist	a2highlargeedblocklist_cycle	a2highlargeedblocklist_sample	a3highlargeedblocklist	a3highlargeedblocklist_cycle	a3highlargeedblocklist_sample	a4highlargeedblocklist	a4highlargeedblocklist_cycle	a4highlargeedblocklist_sample	a5highlargeedblocklist	a5highlargeedblocklist_cycle	a5highlargeedblocklist_sample	b1highsmalledblocklist	b1highsmalledblocklist_cycle	b1highsmalledblocklist_sample	b2highsmalledblocklist	b2highsmalledblocklist_cycle	b2highsmalledblocklist_sample	b3highsmalledblocklist	b3highsmalledblocklist_cycle	b3highsmalledblocklist_sample	b4highsmalledblocklist	b4highsmalledblocklist_cycle	b4highsmalledblocklist_sample	b5highsmalledblocklist	b5highsmalledblocklist_cycle	b5highsmalledblocklist_sample	c1lowlargeedblocklist	c1lowlargeedblocklist_cycle	c1lowlargeedblocklist_sample	c2lowlargeedblocklist	c2lowlargeedblocklist_cycle	c2lowlargeedblocklist_sample	c3lowlargeedblocklist	c3lowlargeedblocklist_cycle	c3lowlargeedblocklist_sample	c4lowlargeedblocklist	c4lowlargeedblocklist_cycle	c4lowlargeedblocklist_sample	c5lowlargeedblocklist	c5lowlargeedblocklist_cycle	c5lowlargeedblocklist_sample	d1lowsmalledblocklist	d1lowsmalledblocklist_cycle	d1lowsmalledblocklist_sample	d2highlargeedblocklist	d2highlargeedblocklist_cycle	d2highlargeedblocklist_sample	d3lowsmalledblocklist	d3lowsmalledblocklist_cycle	d3lowsmalledblocklist_sample	d4lowsmalledblocklist	d4lowsmalledblocklist_cycle	d4lowsmalledblocklist_sample	d5lowsmalledblocklist	d5lowsmalledblocklist_cycle	d5lowsmalledblocklist_sample	e1officelargeblocklist	e1officelargeblocklist_cycle	e1officelargeblocklist_sample	e2officelargeblocklist	e2officelargeblocklist_cycle	e2officelargeblocklist_sample	e3officelargeblocklist	e3officelargeblocklist_cycle	e3officelargeblocklist_sample	e4officelargeblocklist	e4officelargeblocklist_cycle	e4officelargeblocklist_sample	e5officelargeblocklist	e5officelargeblocklist_cycle	e5officelargeblocklist_sample	f1officesmallblocklist	f1officesmallblocklist_cycle	f1officesmallblocklist_sample	f2officesmallblocklist	f2officesmallblocklist_cycle	f2officesmallblocklist_sample	f3officesmallblocklist	f3officesmallblocklist_cycle	f3officesmallblocklist_sample	f4officesmallblocklist	f4officesmallblocklist_cycle	f4officesmallblocklist_sample	f5officesmallblocklist	f5officesmallblocklist_cycle	f5officesmallblocklist_sample	filename	isi_duration	isi_durationerror	isi_finishtime	isi_onsetdelay	isi_onsettime	isi_onsettoonsettime	procedure_subtrial	running_subtrial	stimslide_duration	stimslide_durationerror	stimslide_finishtime	stimslide_offsetdelay	stimslide_offsettime	stimslide_onsetdelay	stimslide_onsettime	stimslide_onsettoonsettime	stimslide_resp	stimslide_rt	stimslide_rttime	onset_unrounded
4	2.5	000_R01_VA_allProc	89	1	"<?xml version=""1.0""?>\n<Clock xmlns:dt=""urn:schemas-microsoft-com:datatypes""><Description dt:dt=""string"">E-Prime Primary Realtime Clock</Description><StartTime><Timestamp dt:dt=""int"">0</Timestamp><DateUtc dt:dt=""string"">2019-12-03T22:31:14Z</DateUtc></StartTime><FrequencyChanges><FrequencyChange><Frequency dt:dt=""r8"">3020410</Frequency><Timestamp dt:dt=""r8"">75306034759</Timestamp><Current dt:dt=""r8"">0</Current><DateUtc dt:dt=""string"">2019-12-03T22:31:14Z</DateUtc></FrequencyChange></FrequencyChanges></Clock>\n"	000_R01_VA_allProc-89-1	60.002	1.0.0.229	1	-2002784074	Professional	2.0.10.356	2.0.10.356	12-03-2019	n/a	17:31:14	2.0.10.252	5	0	0	874174	16	874174	4000	-999999	1037621	-1	1034170	0	Run2Proc	5	1	5	RunList	1	HighSmallED	8000	0	896173	0	896173	0	896173	0	B2HighSmallEDBlockProc	n/a	n/a	n/a	1.0	1.0	1.0	n/a	n/a	n/a	n/a	n/a	n/a	n/a	n/a	n/a	Run2BlockList	1	n/a	n/a	n/a	n/a	n/a	n/a	n/a	n/a	n/a	n/a	n/a	n/a	n/a	n/a	n/a	n/a	n/a	n/a	1.0	1.0	1.0	n/a	n/a	n/a	n/a	n/a	n/a	n/a	n/a	n/a	n/a	n/a	n/a	n/a	n/a	n/a	n/a	n/a	n/a	n/a	n/a	n/a	n/a	n/a	n/a	n/a	n/a	n/a	n/a	n/a	n/a	n/a	n/a	n/a	n/a	n/a	n/a	n/a	n/a	n/a	n/a	n/a	n/a	n/a	n/a	n/a	n/a	n/a	n/a	n/a	n/a	n/a	n/a	n/a	n/a	n/a	n/a	n/a	n/a	n/a	n/a	n/a	n/a	n/a	n/a	n/a	n/a	n/a	n/a	n/a	B2_01.jpg	500	0	880674	0	880674	0	TrialProc1	B2HighSmallEDBlockList	2500	0	878174	0	878174	0	878174	2500	d	898	879072	4.0
7	2.5	000_R01_VA_allProc	89	1	"<?xml version=""1.0""?>\n<Clock xmlns:dt=""urn:schemas-microsoft-com:datatypes""><Description dt:dt=""string"">E-Prime Primary Realtime Clock</Description><StartTime><Timestamp dt:dt=""int"">0</Timestamp><DateUtc dt:dt=""string"">2019-12-03T22:31:14Z</DateUtc></StartTime><FrequencyChanges><FrequencyChange><Frequency dt:dt=""r8"">3020410</Frequency><Timestamp dt:dt=""r8"">75306034759</Timestamp><Current dt:dt=""r8"">0</Current><DateUtc dt:dt=""string"">2019-12-03T22:31:14Z</DateUtc></FrequencyChange></FrequencyChanges></Clock>\n"	000_R01_VA_allProc-89-1	60.002	1.0.0.229	1	-2002784074	Professional	2.0.10.356	2.0.10.356	12-03-2019	n/a	17:31:14	2.0.10.252	5	0	0	874174	16	874174	4000	-999999	1037621	-1	1034170	0	Run2Proc	5	1	5	RunList	1	HighSmallED	8000	0	896173	0	896173	0	896173	0	B2HighSmallEDBlockProc	n/a	n/a	n/a	1.0	1.0	1.0	n/a	n/a	n/a	n/a	n/a	n/a	n/a	n/a	n/a	Run2BlockList	2	n/a	n/a	n/a	n/a	n/a	n/a	n/a	n/a	n/a	n/a	n/a	n/a	n/a	n/a	n/a	n/a	n/a	n/a	2.0	1.0	2.0	n/a	n/a	n/a	n/a	n/a	n/a	n/a	n/a	n/a	n/a	n/a	n/a	n/a	n/a	n/a	n/a	n/a	n/a	n/a	n/a	n/a	n/a	n/a	n/a	n/a	n/a	n/a	n/a	n/a	n/a	n/a	n/a	n/a	n/a	n/a	n/a	n/a	n/a	n/a	n/a	n/a	n/a	n/a	n/a	n/a	n/a	n/a	n/a	n/a	n/a	n/a	n/a	n/a	n/a	n/a	n/a	n/a	n/a	n/a	n/a	n/a	n/a	n/a	n/a	n/a	n/a	n/a	n/a	n/a	B2_02.jpg	500	0	883674	0	883674	0	TrialProc1	B2HighSmallEDBlockList	2500	0	881174	0	881174	0	881174	2500	d	682	881856	7.0
10	2.5	000_R01_VA_allProc	89	1	"<?xml version=""1.0""?>\n<Clock xmlns:dt=""urn:schemas-microsoft-com:datatypes""><Description dt:dt=""string"">E-Prime Primary Realtime Clock</Description><StartTime><Timestamp dt:dt=""int"">0</Timestamp><DateUtc dt:dt=""string"">2019-12-03T22:31:14Z</DateUtc></StartTime><FrequencyChanges><FrequencyChange><Frequency dt:dt=""r8"">3020410</Frequency><Timestamp dt:dt=""r8"">75306034759</Timestamp><Current dt:dt=""r8"">0</Current><DateUtc dt:dt=""string"">2019-12-03T22:31:14Z</DateUtc></FrequencyChange></FrequencyChanges></Clock>\n"	000_R01_VA_allProc-89-1	60.002	1.0.0.229	1	-2002784074	Professional	2.0.10.356	2.0.10.356	12-03-2019	n/a	17:31:14	2.0.10.252	5	0	0	874174	16	874174	4000	-999999	1037621	-1	1034170	0	Run2Proc	5	1	5	RunList	1	HighSmallED	8000	0	896173	0	896173	0	896173	0	B2HighSmallEDBlockProc	n/a	n/a	n/a	1.0	1.0	1.0	n/a	n/a	n/a	n/a	n/a	n/a	n/a	n/a	n/a	Run2BlockList	3	n/a	n/a	n/a	n/a	n/a	n/a	n/a	n/a	n/a	n/a	n/a	n/a	n/a	n/a	n/a	n/a	n/a	n/a	3.0	1.0	3.0	n/a	n/a	n/a	n/a	n/a	n/a	n/a	n/a	n/a	n/a	n/a	n/a	n/a	n/a	n/a	n/a	n/a	n/a	n/a	n/a	n/a	n/a	n/a	n/a	n/a	n/a	n/a	n/a	n/a	n/a	n/a	n/a	n/a	n/a	n/a	n/a	n/a	n/a	n/a	n/a	n/a	n/a	n/a	n/a	n/a	n/a	n/a	n/a	n/a	n/a	n/a	n/a	n/a	n/a	n/a	n/a	n/a	n/a	n/a	n/a	n/a	n/a	n/a	n/a	n/a	n/a	n/a	n/a	n/a	B2_03.jpg	500	0	886674	0	886674	0	TrialProc1	B2HighSmallEDBlockList	2500	0	884174	0	884174	0	884174	2500	d	554	884728	10.0
13	2.5	000_R01_VA_allProc	89	1	"<?xml version=""1.0""?>\n<Clock xmlns:dt=""urn:schemas-microsoft-com:datatypes""><Description dt:dt=""string"">E-Prime Primary Realtime Clock</Description><StartTime><Timestamp dt:dt=""int"">0</Timestamp><DateUtc dt:dt=""string"">2019-12-03T22:31:14Z</DateUtc></StartTime><FrequencyChanges><FrequencyChange><Frequency dt:dt=""r8"">3020410</Frequency><Timestamp dt:dt=""r8"">75306034759</Timestamp><Current dt:dt=""r8"">0</Current><DateUtc dt:dt=""string"">2019-12-03T22:31:14Z</DateUtc></FrequencyChange></FrequencyChanges></Clock>\n"	000_R01_VA_allProc-89-1	60.002	1.0.0.229	1	-2002784074	Professional	2.0.10.356	2.0.10.356	12-03-2019	n/a	17:31:14	2.0.10.252	5	0	0	874174	16	874174	4000	-999999	1037621	-1	1034170	0	Run2Proc	5	1	5	RunList	1	HighSmallED	8000	0	896173	0	896173	0	896173	0	B2HighSmallEDBlockProc	n/a	n/a	n/a	1.0	1.0	1.0	n/a	n/a	n/a	n/a	n/a	n/a	n/a	n/a	n/a	Run2BlockList	4	n/a	n/a	n/a	n/a	n/a	n/a	n/a	n/a	n/a	n/a	n/a	n/a	n/a	n/a	n/a	n/a	n/a	n/a	4.0	1.0	4.0	n/a	n/a	n/a	n/a	n/a	n/a	n/a	n/a	n/a	n/a	n/a	n/a	n/a	n/a	n/a	n/a	n/a	n/a	n/a	n/a	n/a	n/a	n/a	n/a	n/a	n/a	n/a	n/a	n/a	n/a	n/a	n/a	n/a	n/a	n/a	n/a	n/a	n/a	n/a	n/a	n/a	n/a	n/a	n/a	n/a	n/a	n/a	n/a	n/a	n/a	n/a	n/a	n/a	n/a	n/a	n/a	n/a	n/a	n/a	n/a	n/a	n/a	n/a	n/a	n/a	n/a	n/a	n/a	n/a	B2_04.jpg	500	0	889674	0	889674	0	TrialProc1	B2HighSmallEDBlockList	2500	0	887174	0	887174	0	887174	2500	d	650	887824	13.0
16	2.5	000_R01_VA_allProc	89	1	"<?xml version=""1.0""?>\n<Clock xmlns:dt=""urn:schemas-microsoft-com:datatypes""><Description dt:dt=""string"">E-Prime Primary Realtime Clock</Description><StartTime><Timestamp dt:dt=""int"">0</Timestamp><DateUtc dt:dt=""string"">2019-12-03T22:31:14Z</DateUtc></StartTime><FrequencyChanges><FrequencyChange><Frequency dt:dt=""r8"">3020410</Frequency><Timestamp dt:dt=""r8"">75306034759</Timestamp><Current dt:dt=""r8"">0</Current><DateUtc dt:dt=""string"">2019-12-03T22:31:14Z</DateUtc></FrequencyChange></FrequencyChanges></Clock>\n"	000_R01_VA_allProc-89-1	60.002	1.0.0.229	1	-2002784074	Professional	2.0.10.356	2.0.10.356	12-03-2019	n/a	17:31:14	2.0.10.252	5	0	0	874174	16	874174	4000	-999999	1037621	-1	1034170	0	Run2Proc	5	1	5	RunList	1	HighSmallED	8000	0	896173	0	896173	0	896173	0	B2HighSmallEDBlockProc	n/a	n/a	n/a	1.0	1.0	1.0	n/a	n/a	n/a	n/a	n/a	n/a	n/a	n/a	n/a	Run2BlockList	5	n/a	n/a	n/a	n/a	n/a	n/a	n/a	n/a	n/a	n/a	n/a	n/a	n/a	n/a	n/a	n/a	n/a	n/a	5.0	1.0	5.0	n/a	n/a	n/a	n/a	n/a	n/a	n/a	n/a	n/a	n/a	n/a	n/a	n/a	n/a	n/a	n/a	n/a	n/a	n/a	n/a	n/a	n/a	n/a	n/a	n/a	n/a	n/a	n/a	n/a	n/a	n/a	n/a	n/a	n/a	n/a	n/a	n/a	n/a	n/a	n/a	n/a	n/a	n/a	n/a	n/a	n/a	n/a	n/a	n/a	n/a	n/a	n/a	n/a	n/a	n/a	n/a	n/a	n/a	n/a	n/a	n/a	n/a	n/a	n/a	n/a	n/a	n/a	n/a	n/a	B2_05.jpg	500	1	892674	-1	892673	0	TrialProc1	B2HighSmallEDBlockList	2500	0	890174	0	890174	0	890174	2499	c	1018	891192	16.0
19	2.5	000_R01_VA_allProc	89	1	"<?xml version=""1.0""?>\n<Clock xmlns:dt=""urn:schemas-microsoft-com:datatypes""><Description dt:dt=""string"">E-Prime Primary Realtime Clock</Description><StartTime><Timestamp dt:dt=""int"">0</Timestamp><DateUtc dt:dt=""string"">2019-12-03T22:31:14Z</DateUtc></StartTime><FrequencyChanges><FrequencyChange><Frequency dt:dt=""r8"">3020410</Frequency><Timestamp dt:dt=""r8"">75306034759</Timestamp><Current dt:dt=""r8"">0</Current><DateUtc dt:dt=""string"">2019-12-03T22:31:14Z</DateUtc></FrequencyChange></FrequencyChanges></Clock>\n"	000_R01_VA_allProc-89-1	60.002	1.0.0.229	1	-2002784074	Professional	2.0.10.356	2.0.10.356	12-03-2019	n/a	17:31:14	2.0.10.252	5	0	0	874174	16	874174	4000	-999999	1037621	-1	1034170	0	Run2Proc	5	1	5	RunList	1	HighSmallED	8000	0	896173	0	896173	0	896173	0	B2HighSmallEDBlockProc	n/a	n/a	n/a	1.0	1.0	1.0	n/a	n/a	n/a	n/a	n/a	n/a	n/a	n/a	n/a	Run2BlockList	6	n/a	n/a	n/a	n/a	n/a	n/a	n/a	n/a	n/a	n/a	n/a	n/a	n/a	n/a	n/a	n/a	n/a	n/a	6.0	1.0	6.0	n/a	n/a	n/a	n/a	n/a	n/a	n/a	n/a	n/a	n/a	n/a	n/a	n/a	n/a	n/a	n/a	n/a	n/a	n/a	n/a	n/a	n/a	n/a	n/a	n/a	n/a	n/a	n/a	n/a	n/a	n/a	n/a	n/a	n/a	n/a	n/a	n/a	n/a	n/a	n/a	n/a	n/a	n/a	n/a	n/a	n/a	n/a	n/a	n/a	n/a	n/a	n/a	n/a	n/a	n/a	n/a	n/a	n/a	n/a	n/a	n/a	n/a	n/a	n/a	n/a	n/a	n/a	n/a	n/a	B2_06.jpg	500	0	895673	0	895673	0	TrialProc1	B2HighSmallEDBlockList	2500	1	893174	1	893174	0	893173	2500	d	843	894016	18.999000000000002
30	2.5	000_R01_VA_allProc	89	1	"<?xml version=""1.0""?>\n<Clock xmlns:dt=""urn:schemas-microsoft-com:datatypes""><Description dt:dt=""string"">E-Prime Primary Realtime Clock</Description><StartTime><Timestamp dt:dt=""int"">0</Timestamp><DateUtc dt:dt=""string"">2019-12-03T22:31:14Z</DateUtc></StartTime><FrequencyChanges><FrequencyChange><Frequency dt:dt=""r8"">3020410</Frequency><Timestamp dt:dt=""r8"">75306034759</Timestamp><Current dt:dt=""r8"">0</Current><DateUtc dt:dt=""string"">2019-12-03T22:31:14Z</DateUtc></FrequencyChange></FrequencyChanges></Clock>\n"	000_R01_VA_allProc-89-1	60.002	1.0.0.229	1	-2002784074	Professional	2.0.10.356	2.0.10.356	12-03-2019	n/a	17:31:14	2.0.10.252	5	0	0	874174	16	874174	4000	-999999	1037621	-1	1034170	0	Run2Proc	5	1	5	RunList	2	HighLargeED	8000	0	922173	0	922173	0	922173	0	A2HighLargeEDBlockProc	n/a	n/a	n/a	2.0	1.0	2.0	n/a	n/a	n/a	n/a	n/a	n/a	n/a	n/a	n/a	Run2BlockList	1	n/a	n/a	n/a	1.0	1.0	1.0	n/a	n/a	n/a	n/a	n/a	n/a	n/a	n/a	n/a	n/a	n/a	n/a	n/a	n/a	n/a	n/a	n/a	n/a	n/a	n/a	n/a	n/a	n/a	n/a	n/a	n/a	n/a	n/a	n/a	n/a	n/a	n/a	n/a	n/a	n/a	n/a	n/a	n/a	n/a	n/a	n/a	n/a	n/a	n/a	n/a	n/a	n/a	n/a	n/a	n/a	n/a	n/a	n/a	n/a	n/a	n/a	n/a	n/a	n/a	n/a	n/a	n/a	n/a	n/a	n/a	n/a	n/a	n/a	n/a	n/a	n/a	n/a	n/a	n/a	n/a	n/a	n/a	n/a	n/a	n/a	n/a	n/a	n/a	n/a	A2_01.jpg	500	0	906673	0	906673	0	TrialProc1	A2HighLargeEDBlockList	2500	0	904173	0	904173	0	904173	2500	d	1563	905736	29.999
33	2.5	000_R01_VA_allProc	89	1	"<?xml version=""1.0""?>\n<Clock xmlns:dt=""urn:schemas-microsoft-com:datatypes""><Description dt:dt=""string"">E-Prime Primary Realtime Clock</Description><StartTime><Timestamp dt:dt=""int"">0</Timestamp><DateUtc dt:dt=""string"">2019-12-03T22:31:14Z</DateUtc></StartTime><FrequencyChanges><FrequencyChange><Frequency dt:dt=""r8"">3020410</Frequency><Timestamp dt:dt=""r8"">75306034759</Timestamp><Current dt:dt=""r8"">0</Current><DateUtc dt:dt=""string"">2019-12-03T22:31:14Z</DateUtc></FrequencyChange></FrequencyChanges></Clock>\n"	000_R01_VA_allProc-89-1	60.002	1.0.0.229	1	-2002784074	Professional	2.0.10.356	2.0.10.356	12-03-2019	n/a	17:31:14	2.0.10.252	5	0	0	874174	16	874174	4000	-999999	1037621	-1	1034170	0	Run2Proc	5	1	5	RunList	2	HighLargeED	8000	0	922173	0	922173	0	922173	0	A2HighLargeEDBlockProc	n/a	n/a	n/a	2.0	1.0	2.0	n/a	n/a	n/a	n/a	n/a	n/a	n/a	n/a	n/a	Run2BlockList	2	n/a	n/a	n/a	2.0	1.0	2.0	n/a	n/a	n/a	n/a	n/a	n/a	n/a	n/a	n/a	n/a	n/a	n/a	n/a	n/a	n/a	n/a	n/a	n/a	n/a	n/a	n/a	n/a	n/a	n/a	n/a	n/a	n/a	n/a	n/a	n/a	n/a	n/a	n/a	n/a	n/a	n/a	n/a	n/a	n/a	n/a	n/a	n/a	n/a	n/a	n/a	n/a	n/a	n/a	n/a	n/a	n/a	n/a	n/a	n/a	n/a	n/a	n/a	n/a	n/a	n/a	n/a	n/a	n/a	n/a	n/a	n/a	n/a	n/a	n/a	n/a	n/a	n/a	n/a	n/a	n/a	n/a	n/a	n/a	n/a	n/a	n/a	n/a	n/a	n/a	A2_02.jpg	500	0	909673	0	909673	0	TrialProc1	A2HighLargeEDBlockList	2500	0	907173	0	907173	0	907173	2500	c	2027	909200	32.998999999999995
36	2.5	000_R01_VA_allProc	89	1	"<?xml version=""1.0""?>\n<Clock xmlns:dt=""urn:schemas-microsoft-com:datatypes""><Description dt:dt=""string"">E-Prime Primary Realtime Clock</Description><StartTime><Timestamp dt:dt=""int"">0</Timestamp><DateUtc dt:dt=""string"">2019-12-03T22:31:14Z</DateUtc></StartTime><FrequencyChanges><FrequencyChange><Frequency dt:dt=""r8"">3020410</Frequency><Timestamp dt:dt=""r8"">75306034759</Timestamp><Current dt:dt=""r8"">0</Current><DateUtc dt:dt=""string"">2019-12-03T22:31:14Z</DateUtc></FrequencyChange></FrequencyChanges></Clock>\n"	000_R01_VA_allProc-89-1	60.002	1.0.0.229	1	-2002784074	Professional	2.0.10.356	2.0.10.356	12-03-2019	n/a	17:31:14	2.0.10.252	5	0	0	874174	16	874174	4000	-999999	1037621	-1	1034170	0	Run2Proc	5	1	5	RunList	2	HighLargeED	8000	0	922173	0	922173	0	922173	0	A2HighLargeEDBlockProc	n/a	n/a	n/a	2.0	1.0	2.0	n/a	n/a	n/a	n/a	n/a	n/a	n/a	n/a	n/a	Run2BlockList	3	n/a	n/a	n/a	3.0	1.0	3.0	n/a	n/a	n/a	n/a	n/a	n/a	n/a	n/a	n/a	n/a	n/a	n/a	n/a	n/a	n/a	n/a	n/a	n/a	n/a	n/a	n/a	n/a	n/a	n/a	n/a	n/a	n/a	n/a	n/a	n/a	n/a	n/a	n/a	n/a	n/a	n/a	n/a	n/a	n/a	n/a	n/a	n/a	n/a	n/a	n/a	n/a	n/a	n/a	n/a	n/a	n/a	n/a	n/a	n/a	n/a	n/a	n/a	n/a	n/a	n/a	n/a	n/a	n/a	n/a	n/a	n/a	n/a	n/a	n/a	n/a	n/a	n/a	n/a	n/a	n/a	n/a	n/a	n/a	n/a	n/a	n/a	n/a	n/a	n/a	A2_03.jpg	500	0	912673	0	912673	0	TrialProc1	A2HighLargeEDBlockList	2500	0	910173	0	910173	0	910173	2500	c	1147	911320	35.998999999999995
39	2.5	000_R01_VA_allProc	89	1	"<?xml version=""1.0""?>\n<Clock xmlns:dt=""urn:schemas-microsoft-com:datatypes""><Description dt:dt=""string"">E-Prime Primary Realtime Clock</Description><StartTime><Timestamp dt:dt=""int"">0</Timestamp><DateUtc dt:dt=""string"">2019-12-03T22:31:14Z</DateUtc></StartTime><FrequencyChanges><FrequencyChange><Frequency dt:dt=""r8"">3020410</Frequency><Timestamp dt:dt=""r8"">75306034759</Timestamp><Current dt:dt=""r8"">0</Current><DateUtc dt:dt=""string"">2019-12-03T22:31:14Z</DateUtc></FrequencyChange></FrequencyChanges></Clock>\n"	000_R01_VA_allProc-89-1	60.002	1.0.0.229	1	-2002784074	Professional	2.0.10.356	2.0.10.356	12-03-2019	n/a	17:31:14	2.0.10.252	5	0	0	874174	16	874174	4000	-999999	1037621	-1	1034170	0	Run2Proc	5	1	5	RunList	2	HighLargeED	8000	0	922173	0	922173	0	922173	0	A2HighLargeEDBlockProc	n/a	n/a	n/a	2.0	1.0	2.0	n/a	n/a	n/a	n/a	n/a	n/a	n/a	n/a	n/a	Run2BlockList	4	n/a	n/a	n/a	4.0	1.0	4.0	n/a	n/a	n/a	n/a	n/a	n/a	n/a	n/a	n/a	n/a	n/a	n/a	n/a	n/a	n/a	n/a	n/a	n/a	n/a	n/a	n/a	n/a	n/a	n/a	n/a	n/a	n/a	n/a	n/a	n/a	n/a	n/a	n/a	n/a	n/a	n/a	n/a	n/a	n/a	n/a	n/a	n/a	n/a	n/a	n/a	n/a	n/a	n/a	n/a	n/a	n/a	n/a	n/a	n/a	n/a	n/a	n/a	n/a	n/a	n/a	n/a	n/a	n/a	n/a	n/a	n/a	n/a	n/a	n/a	n/a	n/a	n/a	n/a	n/a	n/a	n/a	n/a	n/a	n/a	n/a	n/a	n/a	n/a	n/a	A2_04.jpg	500	0	915673	0	915673	0	TrialProc1	A2HighLargeEDBlockList	2500	0	913173	0	913173	0	913173	2500	c	1059	914232	38.999
42	2.5	000_R01_VA_allProc	89	1	"<?xml version=""1.0""?>\n<Clock xmlns:dt=""urn:schemas-microsoft-com:datatypes""><Description dt:dt=""string"">E-Prime Primary Realtime Clock</Description><StartTime><Timestamp dt:dt=""int"">0</Timestamp><DateUtc dt:dt=""string"">2019-12-03T22:31:14Z</DateUtc></StartTime><FrequencyChanges><FrequencyChange><Frequency dt:dt=""r8"">3020410</Frequency><Timestamp dt:dt=""r8"">75306034759</Timestamp><Current dt:dt=""r8"">0</Current><DateUtc dt:dt=""string"">2019-12-03T22:31:14Z</DateUtc></FrequencyChange></FrequencyChanges></Clock>\n"	000_R01_VA_allProc-89-1	60.002	1.0.0.229	1	-2002784074	Professional	2.0.10.356	2.0.10.356	12-03-2019	n/a	17:31:14	2.0.10.252	5	0	0	874174	16	874174	4000	-999999	1037621	-1	1034170	0	Run2Proc	5	1	5	RunList	2	HighLargeED	8000	0	922173	0	922173	0	922173	0	A2HighLargeEDBlockProc	n/a	n/a	n/a	2.0	1.0	2.0	n/a	n/a	n/a	n/a	n/a	n/a	n/a	n/a	n/a	Run2BlockList	5	n/a	n/a	n/a	5.0	1.0	5.0	n/a	n/a	n/a	n/a	n/a	n/a	n/a	n/a	n/a	n/a	n/a	n/a	n/a	n/a	n/a	n/a	n/a	n/a	n/a	n/a	n/a	n/a	n/a	n/a	n/a	n/a	n/a	n/a	n/a	n/a	n/a	n/a	n/a	n/a	n/a	n/a	n/a	n/a	n/a	n/a	n/a	n/a	n/a	n/a	n/a	n/a	n/a	n/a	n/a	n/a	n/a	n/a	n/a	n/a	n/a	n/a	n/a	n/a	n/a	n/a	n/a	n/a	n/a	n/a	n/a	n/a	n/a	n/a	n/a	n/a	n/a	n/a	n/a	n/a	n/a	n/a	n/a	n/a	n/a	n/a	n/a	n/a	n/a	n/a	A2_05.jpg	500	0	918673	0	918673	0	TrialProc1	A2HighLargeEDBlockList	2500	0	916173	0	916173	0	916173	2500	c	1075	917248	41.999
45	2.5	000_R01_VA_allProc	89	1	"<?xml version=""1.0""?>\n<Clock xmlns:dt=""urn:schemas-microsoft-com:datatypes""><Description dt:dt=""string"">E-Prime Primary Realtime Clock</Description><StartTime><Timestamp dt:dt=""int"">0</Timestamp><DateUtc dt:dt=""string"">2019-12-03T22:31:14Z</DateUtc></StartTime><FrequencyChanges><FrequencyChange><Frequency dt:dt=""r8"">3020410</Frequency><Timestamp dt:dt=""r8"">75306034759</Timestamp><Current dt:dt=""r8"">0</Current><DateUtc dt:dt=""string"">2019-12-03T22:31:14Z</DateUtc></FrequencyChange></FrequencyChanges></Clock>\n"	000_R01_VA_allProc-89-1	60.002	1.0.0.229	1	-2002784074	Professional	2.0.10.356	2.0.10.356	12-03-2019	n/a	17:31:14	2.0.10.252	5	0	0	874174	16	874174	4000	-999999	1037621	-1	1034170	0	Run2Proc	5	1	5	RunList	2	HighLargeED	8000	0	922173	0	922173	0	922173	0	A2HighLargeEDBlockProc	n/a	n/a	n/a	2.0	1.0	2.0	n/a	n/a	n/a	n/a	n/a	n/a	n/a	n/a	n/a	Run2BlockList	6	n/a	n/a	n/a	6.0	1.0	6.0	n/a	n/a	n/a	n/a	n/a	n/a	n/a	n/a	n/a	n/a	n/a	n/a	n/a	n/a	n/a	n/a	n/a	n/a	n/a	n/a	n/a	n/a	n/a	n/a	n/a	n/a	n/a	n/a	n/a	n/a	n/a	n/a	n/a	n/a	n/a	n/a	n/a	n/a	n/a	n/a	n/a	n/a	n/a	n/a	n/a	n/a	n/a	n/a	n/a	n/a	n/a	n/a	n/a	n/a	n/a	n/a	n/a	n/a	n/a	n/a	n/a	n/a	n/a	n/a	n/a	n/a	n/a	n/a	n/a	n/a	n/a	n/a	n/a	n/a	n/a	n/a	n/a	n/a	n/a	n/a	n/a	n/a	n/a	n/a	A2_06.jpg	500	0	921673	0	921673	0	TrialProc1	A2HighLargeEDBlockList	2500	0	919173	0	919173	0	919173	2500	c	1051	920224	44.999
56	2.5	000_R01_VA_allProc	89	1	"<?xml version=""1.0""?>\n<Clock xmlns:dt=""urn:schemas-microsoft-com:datatypes""><Description dt:dt=""string"">E-Prime Primary Realtime Clock</Description><StartTime><Timestamp dt:dt=""int"">0</Timestamp><DateUtc dt:dt=""string"">2019-12-03T22:31:14Z</DateUtc></StartTime><FrequencyChanges><FrequencyChange><Frequency dt:dt=""r8"">3020410</Frequency><Timestamp dt:dt=""r8"">75306034759</Timestamp><Current dt:dt=""r8"">0</Current><DateUtc dt:dt=""string"">2019-12-03T22:31:14Z</DateUtc></FrequencyChange></FrequencyChanges></Clock>\n"	000_R01_VA_allProc-89-1	60.002	1.0.0.229	1	-2002784074	Professional	2.0.10.356	2.0.10.356	12-03-2019	n/a	17:31:14	2.0.10.252	5	0	0	874174	16	874174	4000	-999999	1037621	-1	1034170	0	Run2Proc	5	1	5	RunList	3	OfficeLarge	8000	0	948172	0	948172	0	948172	0	E2OfficeLargeBlockProc	n/a	n/a	n/a	3.0	1.0	3.0	n/a	n/a	n/a	n/a	n/a	n/a	n/a	n/a	n/a	Run2BlockList	1	n/a	n/a	n/a	n/a	n/a	n/a	n/a	n/a	n/a	n/a	n/a	n/a	n/a	n/a	n/a	n/a	n/a	n/a	n/a	n/a	n/a	n/a	n/a	n/a	n/a	n/a	n/a	n/a	n/a	n/a	n/a	n/a	n/a	n/a	n/a	n/a	n/a	n/a	n/a	n/a	n/a	n/a	n/a	n/a	n/a	n/a	n/a	n/a	n/a	n/a	n/a	n/a	n/a	n/a	n/a	n/a	n/a	n/a	n/a	n/a	n/a	n/a	n/a	1.0	1.0	1.0	n/a	n/a	n/a	n/a	n/a	n/a	n/a	n/a	n/a	n/a	n/a	n/a	n/a	n/a	n/a	n/a	n/a	n/a	n/a	n/a	n/a	n/a	n/a	n/a	E2_01.jpg	500	0	932673	0	932673	0	TrialProc1	E2OfficeLargeBlockList	2500	0	930173	0	930173	0	930173	2500	c	1338	931511	55.999
59	2.5	000_R01_VA_allProc	89	1	"<?xml version=""1.0""?>\n<Clock xmlns:dt=""urn:schemas-microsoft-com:datatypes""><Description dt:dt=""string"">E-Prime Primary Realtime Clock</Description><StartTime><Timestamp dt:dt=""int"">0</Timestamp><DateUtc dt:dt=""string"">2019-12-03T22:31:14Z</DateUtc></StartTime><FrequencyChanges><FrequencyChange><Frequency dt:dt=""r8"">3020410</Frequency><Timestamp dt:dt=""r8"">75306034759</Timestamp><Current dt:dt=""r8"">0</Current><DateUtc dt:dt=""string"">2019-12-03T22:31:14Z</DateUtc></FrequencyChange></FrequencyChanges></Clock>\n"	000_R01_VA_allProc-89-1	60.002	1.0.0.229	1	-2002784074	Professional	2.0.10.356	2.0.10.356	12-03-2019	n/a	17:31:14	2.0.10.252	5	0	0	874174	16	874174	4000	-999999	1037621	-1	1034170	0	Run2Proc	5	1	5	RunList	3	OfficeLarge	8000	0	948172	0	948172	0	948172	0	E2OfficeLargeBlockProc	n/a	n/a	n/a	3.0	1.0	3.0	n/a	n/a	n/a	n/a	n/a	n/a	n/a	n/a	n/a	Run2BlockList	2	n/a	n/a	n/a	n/a	n/a	n/a	n/a	n/a	n/a	n/a	n/a	n/a	n/a	n/a	n/a	n/a	n/a	n/a	n/a	n/a	n/a	n/a	n/a	n/a	n/a	n/a	n/a	n/a	n/a	n/a	n/a	n/a	n/a	n/a	n/a	n/a	n/a	n/a	n/a	n/a	n/a	n/a	n/a	n/a	n/a	n/a	n/a	n/a	n/a	n/a	n/a	n/a	n/a	n/a	n/a	n/a	n/a	n/a	n/a	n/a	n/a	n/a	n/a	2.0	1.0	2.0	n/a	n/a	n/a	n/a	n/a	n/a	n/a	n/a	n/a	n/a	n/a	n/a	n/a	n/a	n/a	n/a	n/a	n/a	n/a	n/a	n/a	n/a	n/a	n/a	E2_02.jpg	500	0	935673	0	935673	0	TrialProc1	E2OfficeLargeBlockList	2500	0	933173	0	933173	0	933173	2500	c	1834	935007	58.999
62	2.5	000_R01_VA_allProc	89	1	"<?xml version=""1.0""?>\n<Clock xmlns:dt=""urn:schemas-microsoft-com:datatypes""><Description dt:dt=""string"">E-Prime Primary Realtime Clock</Description><StartTime><Timestamp dt:dt=""int"">0</Timestamp><DateUtc dt:dt=""string"">2019-12-03T22:31:14Z</DateUtc></StartTime><FrequencyChanges><FrequencyChange><Frequency dt:dt=""r8"">3020410</Frequency><Timestamp dt:dt=""r8"">75306034759</Timestamp><Current dt:dt=""r8"">0</Current><DateUtc dt:dt=""string"">2019-12-03T22:31:14Z</DateUtc></FrequencyChange></FrequencyChanges></Clock>\n"	000_R01_VA_allProc-89-1	60.002	1.0.0.229	1	-2002784074	Professional	2.0.10.356	2.0.10.356	12-03-2019	n/a	17:31:14	2.0.10.252	5	0	0	874174	16	874174	4000	-999999	1037621	-1	1034170	0	Run2Proc	5	1	5	RunList	3	OfficeLarge	8000	0	948172	0	948172	0	948172	0	E2OfficeLargeBlockProc	n/a	n/a	n/a	3.0	1.0	3.0	n/a	n/a	n/a	n/a	n/a	n/a	n/a	n/a	n/a	Run2BlockList	3	n/a	n/a	n/a	n/a	n/a	n/a	n/a	n/a	n/a	n/a	n/a	n/a	n/a	n/a	n/a	n/a	n/a	n/a	n/a	n/a	n/a	n/a	n/a	n/a	n/a	n/a	n/a	n/a	n/a	n/a	n/a	n/a	n/a	n/a	n/a	n/a	n/a	n/a	n/a	n/a	n/a	n/a	n/a	n/a	n/a	n/a	n/a	n/a	n/a	n/a	n/a	n/a	n/a	n/a	n/a	n/a	n/a	n/a	n/a	n/a	n/a	n/a	n/a	3.0	1.0	3.0	n/a	n/a	n/a	n/a	n/a	n/a	n/a	n/a	n/a	n/a	n/a	n/a	n/a	n/a	n/a	n/a	n/a	n/a	n/a	n/a	n/a	n/a	n/a	n/a	E2_03.jpg	500	1	938673	-1	938672	0	TrialProc1	E2OfficeLargeBlockList	2500	0	936173	0	936173	0	936173	2499	c	1314	937487	61.999
65	2.5	000_R01_VA_allProc	89	1	"<?xml version=""1.0""?>\n<Clock xmlns:dt=""urn:schemas-microsoft-com:datatypes""><Description dt:dt=""string"">E-Prime Primary Realtime Clock</Description><StartTime><Timestamp dt:dt=""int"">0</Timestamp><DateUtc dt:dt=""string"">2019-12-03T22:31:14Z</DateUtc></StartTime><FrequencyChanges><FrequencyChange><Frequency dt:dt=""r8"">3020410</Frequency><Timestamp dt:dt=""r8"">75306034759</Timestamp><Current dt:dt=""r8"">0</Current><DateUtc dt:dt=""string"">2019-12-03T22:31:14Z</DateUtc></FrequencyChange></FrequencyChanges></Clock>\n"	000_R01_VA_allProc-89-1	60.002	1.0.0.229	1	-2002784074	Professional	2.0.10.356	2.0.10.356	12-03-2019	n/a	17:31:14	2.0.10.252	5	0	0	874174	16	874174	4000	-999999	1037621	-1	1034170	0	Run2Proc	5	1	5	RunList	3	OfficeLarge	8000	0	948172	0	948172	0	948172	0	E2OfficeLargeBlockProc	n/a	n/a	n/a	3.0	1.0	3.0	n/a	n/a	n/a	n/a	n/a	n/a	n/a	n/a	n/a	Run2BlockList	4	n/a	n/a	n/a	n/a	n/a	n/a	n/a	n/a	n/a	n/a	n/a	n/a	n/a	n/a	n/a	n/a	n/a	n/a	n/a	n/a	n/a	n/a	n/a	n/a	n/a	n/a	n/a	n/a	n/a	n/a	n/a	n/a	n/a	n/a	n/a	n/a	n/a	n/a	n/a	n/a	n/a	n/a	n/a	n/a	n/a	n/a	n/a	n/a	n/a	n/a	n/a	n/a	n/a	n/a	n/a	n/a	n/a	n/a	n/a	n/a	n/a	n/a	n/a	4.0	1.0	4.0	n/a	n/a	n/a	n/a	n/a	n/a	n/a	n/a	n/a	n/a	n/a	n/a	n/a	n/a	n/a	n/a	n/a	n/a	n/a	n/a	n/a	n/a	n/a	n/a	E2_04.jpg	500	0	941672	0	941672	0	TrialProc1	E2OfficeLargeBlockList	2500	1	939173	1	939173	0	939172	2500	c	755	939927	64.99799999999999
68	2.5	000_R01_VA_allProc	89	1	"<?xml version=""1.0""?>\n<Clock xmlns:dt=""urn:schemas-microsoft-com:datatypes""><Description dt:dt=""string"">E-Prime Primary Realtime Clock</Description><StartTime><Timestamp dt:dt=""int"">0</Timestamp><DateUtc dt:dt=""string"">2019-12-03T22:31:14Z</DateUtc></StartTime><FrequencyChanges><FrequencyChange><Frequency dt:dt=""r8"">3020410</Frequency><Timestamp dt:dt=""r8"">75306034759</Timestamp><Current dt:dt=""r8"">0</Current><DateUtc dt:dt=""string"">2019-12-03T22:31:14Z</DateUtc></FrequencyChange></FrequencyChanges></Clock>\n"	000_R01_VA_allProc-89-1	60.002	1.0.0.229	1	-2002784074	Professional	2.0.10.356	2.0.10.356	12-03-2019	n/a	17:31:14	2.0.10.252	5	0	0	874174	16	874174	4000	-999999	1037621	-1	1034170	0	Run2Proc	5	1	5	RunList	3	OfficeLarge	8000	0	948172	0	948172	0	948172	0	E2OfficeLargeBlockProc	n/a	n/a	n/a	3.0	1.0	3.0	n/a	n/a	n/a	n/a	n/a	n/a	n/a	n/a	n/a	Run2BlockList	5	n/a	n/a	n/a	n/a	n/a	n/a	n/a	n/a	n/a	n/a	n/a	n/a	n/a	n/a	n/a	n/a	n/a	n/a	n/a	n/a	n/a	n/a	n/a	n/a	n/a	n/a	n/a	n/a	n/a	n/a	n/a	n/a	n/a	n/a	n/a	n/a	n/a	n/a	n/a	n/a	n/a	n/a	n/a	n/a	n/a	n/a	n/a	n/a	n/a	n/a	n/a	n/a	n/a	n/a	n/a	n/a	n/a	n/a	n/a	n/a	n/a	n/a	n/a	5.0	1.0	5.0	n/a	n/a	n/a	n/a	n/a	n/a	n/a	n/a	n/a	n/a	n/a	n/a	n/a	n/a	n/a	n/a	n/a	n/a	n/a	n/a	n/a	n/a	n/a	n/a	E2_05.jpg	500	0	944672	0	944672	0	TrialProc1	E2OfficeLargeBlockList	2500	0	942172	0	942172	0	942172	2500	c	707	942879	67.99799999999999
71	2.5	000_R01_VA_allProc	89	1	"<?xml version=""1.0""?>\n<Clock xmlns:dt=""urn:schemas-microsoft-com:datatypes""><Description dt:dt=""string"">E-Prime Primary Realtime Clock</Description><StartTime><Timestamp dt:dt=""int"">0</Timestamp><DateUtc dt:dt=""string"">2019-12-03T22:31:14Z</DateUtc></StartTime><FrequencyChanges><FrequencyChange><Frequency dt:dt=""r8"">3020410</Frequency><Timestamp dt:dt=""r8"">75306034759</Timestamp><Current dt:dt=""r8"">0</Current><DateUtc dt:dt=""string"">2019-12-03T22:31:14Z</DateUtc></FrequencyChange></FrequencyChanges></Clock>\n"	000_R01_VA_allProc-89-1	60.002	1.0.0.229	1	-2002784074	Professional	2.0.10.356	2.0.10.356	12-03-2019	n/a	17:31:14	2.0.10.252	5	0	0	874174	16	874174	4000	-999999	1037621	-1	1034170	0	Run2Proc	5	1	5	RunList	3	OfficeLarge	8000	0	948172	0	948172	0	948172	0	E2OfficeLargeBlockProc	n/a	n/a	n/a	3.0	1.0	3.0	n/a	n/a	n/a	n/a	n/a	n/a	n/a	n/a	n/a	Run2BlockList	6	n/a	n/a	n/a	n/a	n/a	n/a	n/a	n/a	n/a	n/a	n/a	n/a	n/a	n/a	n/a	n/a	n/a	n/a	n/a	n/a	n/a	n/a	n/a	n/a	n/a	n/a	n/a	n/a	n/a	n/a	n/a	n/a	n/a	n/a	n/a	n/a	n/a	n/a	n/a	n/a	n/a	n/a	n/a	n/a	n/a	n/a	n/a	n/a	n/a	n/a	n/a	n/a	n/a	n/a	n/a	n/a	n/a	n/a	n/a	n/a	n/a	n/a	n/a	6.0	1.0	6.0	n/a	n/a	n/a	n/a	n/a	n/a	n/a	n/a	n/a	n/a	n/a	n/a	n/a	n/a	n/a	n/a	n/a	n/a	n/a	n/a	n/a	n/a	n/a	n/a	E2_06.jpg	500	0	947672	0	947672	0	TrialProc1	E2OfficeLargeBlockList	2500	0	945172	0	945172	0	945172	2500	c	1035	946207	70.998
82	2.5	000_R01_VA_allProc	89	1	"<?xml version=""1.0""?>\n<Clock xmlns:dt=""urn:schemas-microsoft-com:datatypes""><Description dt:dt=""string"">E-Prime Primary Realtime Clock</Description><StartTime><Timestamp dt:dt=""int"">0</Timestamp><DateUtc dt:dt=""string"">2019-12-03T22:31:14Z</DateUtc></StartTime><FrequencyChanges><FrequencyChange><Frequency dt:dt=""r8"">3020410</Frequency><Timestamp dt:dt=""r8"">75306034759</Timestamp><Current dt:dt=""r8"">0</Current><DateUtc dt:dt=""string"">2019-12-03T22:31:14Z</DateUtc></FrequencyChange></FrequencyChanges></Clock>\n"	000_R01_VA_allProc-89-1	60.002	1.0.0.229	1	-2002784074	Professional	2.0.10.356	2.0.10.356	12-03-2019	n/a	17:31:14	2.0.10.252	5	0	0	874174	16	874174	4000	-999999	1037621	-1	1034170	0	Run2Proc	5	1	5	RunList	4	LowLarge	8000	0	974172	0	974172	0	974172	0	C2LowLargeEDBlockProc	n/a	n/a	n/a	4.0	1.0	4.0	n/a	n/a	n/a	n/a	n/a	n/a	n/a	n/a	n/a	Run2BlockList	1	n/a	n/a	n/a	n/a	n/a	n/a	n/a	n/a	n/a	n/a	n/a	n/a	n/a	n/a	n/a	n/a	n/a	n/a	n/a	n/a	n/a	n/a	n/a	n/a	n/a	n/a	n/a	n/a	n/a	n/a	n/a	n/a	n/a	1.0	1.0	1.0	n/a	n/a	n/a	n/a	n/a	n/a	n/a	n/a	n/a	n/a	n/a	n/a	n/a	n/a	n/a	n/a	n/a	n/a	n/a	n/a	n/a	n/a	n/a	n/a	n/a	n/a	n/a	n/a	n/a	n/a	n/a	n/a	n/a	n/a	n/a	n/a	n/a	n/a	n/a	n/a	n/a	n/a	n/a	n/a	n/a	n/a	n/a	n/a	n/a	n/a	n/a	n/a	n/a	n/a	C2_01.jpg	500	0	958672	0	958672	0	TrialProc1	C2LowLargeEDBlockList	2500	0	956172	0	956172	0	956172	2500	c	1195	957367	81.998
85	2.5	000_R01_VA_allProc	89	1	"<?xml version=""1.0""?>\n<Clock xmlns:dt=""urn:schemas-microsoft-com:datatypes""><Description dt:dt=""string"">E-Prime Primary Realtime Clock</Description><StartTime><Timestamp dt:dt=""int"">0</Timestamp><DateUtc dt:dt=""string"">2019-12-03T22:31:14Z</DateUtc></StartTime><FrequencyChanges><FrequencyChange><Frequency dt:dt=""r8"">3020410</Frequency><Timestamp dt:dt=""r8"">75306034759</Timestamp><Current dt:dt=""r8"">0</Current><DateUtc dt:dt=""string"">2019-12-03T22:31:14Z</DateUtc></FrequencyChange></FrequencyChanges></Clock>\n"	000_R01_VA_allProc-89-1	60.002	1.0.0.229	1	-2002784074	Professional	2.0.10.356	2.0.10.356	12-03-2019	n/a	17:31:14	2.0.10.252	5	0	0	874174	16	874174	4000	-999999	1037621	-1	1034170	0	Run2Proc	5	1	5	RunList	4	LowLarge	8000	0	974172	0	974172	0	974172	0	C2LowLargeEDBlockProc	n/a	n/a	n/a	4.0	1.0	4.0	n/a	n/a	n/a	n/a	n/a	n/a	n/a	n/a	n/a	Run2BlockList	2	n/a	n/a	n/a	n/a	n/a	n/a	n/a	n/a	n/a	n/a	n/a	n/a	n/a	n/a	n/a	n/a	n/a	n/a	n/a	n/a	n/a	n/a	n/a	n/a	n/a	n/a	n/a	n/a	n/a	n/a	n/a	n/a	n/a	2.0	1.0	2.0	n/a	n/a	n/a	n/a	n/a	n/a	n/a	n/a	n/a	n/a	n/a	n/a	n/a	n/a	n/a	n/a	n/a	n/a	n/a	n/a	n/a	n/a	n/a	n/a	n/a	n/a	n/a	n/a	n/a	n/a	n/a	n/a	n/a	n/a	n/a	n/a	n/a	n/a	n/a	n/a	n/a	n/a	n/a	n/a	n/a	n/a	n/a	n/a	n/a	n/a	n/a	n/a	n/a	n/a	C2_02.jpg	500	0	961672	0	961672	0	TrialProc1	C2LowLargeEDBlockList	2500	0	959172	0	959172	0	959172	2500	n/a	0	0	84.998
88	2.5	000_R01_VA_allProc	89	1	"<?xml version=""1.0""?>\n<Clock xmlns:dt=""urn:schemas-microsoft-com:datatypes""><Description dt:dt=""string"">E-Prime Primary Realtime Clock</Description><StartTime><Timestamp dt:dt=""int"">0</Timestamp><DateUtc dt:dt=""string"">2019-12-03T22:31:14Z</DateUtc></StartTime><FrequencyChanges><FrequencyChange><Frequency dt:dt=""r8"">3020410</Frequency><Timestamp dt:dt=""r8"">75306034759</Timestamp><Current dt:dt=""r8"">0</Current><DateUtc dt:dt=""string"">2019-12-03T22:31:14Z</DateUtc></FrequencyChange></FrequencyChanges></Clock>\n"	000_R01_VA_allProc-89-1	60.002	1.0.0.229	1	-2002784074	Professional	2.0.10.356	2.0.10.356	12-03-2019	n/a	17:31:14	2.0.10.252	5	0	0	874174	16	874174	4000	-999999	1037621	-1	1034170	0	Run2Proc	5	1	5	RunList	4	LowLarge	8000	0	974172	0	974172	0	974172	0	C2LowLargeEDBlockProc	n/a	n/a	n/a	4.0	1.0	4.0	n/a	n/a	n/a	n/a	n/a	n/a	n/a	n/a	n/a	Run2BlockList	3	n/a	n/a	n/a	n/a	n/a	n/a	n/a	n/a	n/a	n/a	n/a	n/a	n/a	n/a	n/a	n/a	n/a	n/a	n/a	n/a	n/a	n/a	n/a	n/a	n/a	n/a	n/a	n/a	n/a	n/a	n/a	n/a	n/a	3.0	1.0	3.0	n/a	n/a	n/a	n/a	n/a	n/a	n/a	n/a	n/a	n/a	n/a	n/a	n/a	n/a	n/a	n/a	n/a	n/a	n/a	n/a	n/a	n/a	n/a	n/a	n/a	n/a	n/a	n/a	n/a	n/a	n/a	n/a	n/a	n/a	n/a	n/a	n/a	n/a	n/a	n/a	n/a	n/a	n/a	n/a	n/a	n/a	n/a	n/a	n/a	n/a	n/a	n/a	n/a	n/a	C2_03.jpg	500	0	964672	0	964672	0	TrialProc1	C2LowLargeEDBlockList	2500	0	962172	0	962172	0	962172	2500	c	723	962895	87.998
91	2.5	000_R01_VA_allProc	89	1	"<?xml version=""1.0""?>\n<Clock xmlns:dt=""urn:schemas-microsoft-com:datatypes""><Description dt:dt=""string"">E-Prime Primary Realtime Clock</Description><StartTime><Timestamp dt:dt=""int"">0</Timestamp><DateUtc dt:dt=""string"">2019-12-03T22:31:14Z</DateUtc></StartTime><FrequencyChanges><FrequencyChange><Frequency dt:dt=""r8"">3020410</Frequency><Timestamp dt:dt=""r8"">75306034759</Timestamp><Current dt:dt=""r8"">0</Current><DateUtc dt:dt=""string"">2019-12-03T22:31:14Z</DateUtc></FrequencyChange></FrequencyChanges></Clock>\n"	000_R01_VA_allProc-89-1	60.002	1.0.0.229	1	-2002784074	Professional	2.0.10.356	2.0.10.356	12-03-2019	n/a	17:31:14	2.0.10.252	5	0	0	874174	16	874174	4000	-999999	1037621	-1	1034170	0	Run2Proc	5	1	5	RunList	4	LowLarge	8000	0	974172	0	974172	0	974172	0	C2LowLargeEDBlockProc	n/a	n/a	n/a	4.0	1.0	4.0	n/a	n/a	n/a	n/a	n/a	n/a	n/a	n/a	n/a	Run2BlockList	4	n/a	n/a	n/a	n/a	n/a	n/a	n/a	n/a	n/a	n/a	n/a	n/a	n/a	n/a	n/a	n/a	n/a	n/a	n/a	n/a	n/a	n/a	n/a	n/a	n/a	n/a	n/a	n/a	n/a	n/a	n/a	n/a	n/a	4.0	1.0	4.0	n/a	n/a	n/a	n/a	n/a	n/a	n/a	n/a	n/a	n/a	n/a	n/a	n/a	n/a	n/a	n/a	n/a	n/a	n/a	n/a	n/a	n/a	n/a	n/a	n/a	n/a	n/a	n/a	n/a	n/a	n/a	n/a	n/a	n/a	n/a	n/a	n/a	n/a	n/a	n/a	n/a	n/a	n/a	n/a	n/a	n/a	n/a	n/a	n/a	n/a	n/a	n/a	n/a	n/a	C2_04.jpg	500	0	967672	0	967672	0	TrialProc1	C2LowLargeEDBlockList	2500	0	965172	0	965172	0	965172	2500	c	731	965903	90.998
94	2.5	000_R01_VA_allProc	89	1	"<?xml version=""1.0""?>\n<Clock xmlns:dt=""urn:schemas-microsoft-com:datatypes""><Description dt:dt=""string"">E-Prime Primary Realtime Clock</Description><StartTime><Timestamp dt:dt=""int"">0</Timestamp><DateUtc dt:dt=""string"">2019-12-03T22:31:14Z</DateUtc></StartTime><FrequencyChanges><FrequencyChange><Frequency dt:dt=""r8"">3020410</Frequency><Timestamp dt:dt=""r8"">75306034759</Timestamp><Current dt:dt=""r8"">0</Current><DateUtc dt:dt=""string"">2019-12-03T22:31:14Z</DateUtc></FrequencyChange></FrequencyChanges></Clock>\n"	000_R01_VA_allProc-89-1	60.002	1.0.0.229	1	-2002784074	Professional	2.0.10.356	2.0.10.356	12-03-2019	n/a	17:31:14	2.0.10.252	5	0	0	874174	16	874174	4000	-999999	1037621	-1	1034170	0	Run2Proc	5	1	5	RunList	4	LowLarge	8000	0	974172	0	974172	0	974172	0	C2LowLargeEDBlockProc	n/a	n/a	n/a	4.0	1.0	4.0	n/a	n/a	n/a	n/a	n/a	n/a	n/a	n/a	n/a	Run2BlockList	5	n/a	n/a	n/a	n/a	n/a	n/a	n/a	n/a	n/a	n/a	n/a	n/a	n/a	n/a	n/a	n/a	n/a	n/a	n/a	n/a	n/a	n/a	n/a	n/a	n/a	n/a	n/a	n/a	n/a	n/a	n/a	n/a	n/a	5.0	1.0	5.0	n/a	n/a	n/a	n/a	n/a	n/a	n/a	n/a	n/a	n/a	n/a	n/a	n/a	n/a	n/a	n/a	n/a	n/a	n/a	n/a	n/a	n/a	n/a	n/a	n/a	n/a	n/a	n/a	n/a	n/a	n/a	n/a	n/a	n/a	n/a	n/a	n/a	n/a	n/a	n/a	n/a	n/a	n/a	n/a	n/a	n/a	n/a	n/a	n/a	n/a	n/a	n/a	n/a	n/a	C2_05.jpg	500	0	970672	0	970672	0	TrialProc1	C2LowLargeEDBlockList	2500	0	968172	0	968172	0	968172	2500	c	835	969007	93.998
97	2.5	000_R01_VA_allProc	89	1	"<?xml version=""1.0""?>\n<Clock xmlns:dt=""urn:schemas-microsoft-com:datatypes""><Description dt:dt=""string"">E-Prime Primary Realtime Clock</Description><StartTime><Timestamp dt:dt=""int"">0</Timestamp><DateUtc dt:dt=""string"">2019-12-03T22:31:14Z</DateUtc></StartTime><FrequencyChanges><FrequencyChange><Frequency dt:dt=""r8"">3020410</Frequency><Timestamp dt:dt=""r8"">75306034759</Timestamp><Current dt:dt=""r8"">0</Current><DateUtc dt:dt=""string"">2019-12-03T22:31:14Z</DateUtc></FrequencyChange></FrequencyChanges></Clock>\n"	000_R01_VA_allProc-89-1	60.002	1.0.0.229	1	-2002784074	Professional	2.0.10.356	2.0.10.356	12-03-2019	n/a	17:31:14	2.0.10.252	5	0	0	874174	16	874174	4000	-999999	1037621	-1	1034170	0	Run2Proc	5	1	5	RunList	4	LowLarge	8000	0	974172	0	974172	0	974172	0	C2LowLargeEDBlockProc	n/a	n/a	n/a	4.0	1.0	4.0	n/a	n/a	n/a	n/a	n/a	n/a	n/a	n/a	n/a	Run2BlockList	6	n/a	n/a	n/a	n/a	n/a	n/a	n/a	n/a	n/a	n/a	n/a	n/a	n/a	n/a	n/a	n/a	n/a	n/a	n/a	n/a	n/a	n/a	n/a	n/a	n/a	n/a	n/a	n/a	n/a	n/a	n/a	n/a	n/a	6.0	1.0	6.0	n/a	n/a	n/a	n/a	n/a	n/a	n/a	n/a	n/a	n/a	n/a	n/a	n/a	n/a	n/a	n/a	n/a	n/a	n/a	n/a	n/a	n/a	n/a	n/a	n/a	n/a	n/a	n/a	n/a	n/a	n/a	n/a	n/a	n/a	n/a	n/a	n/a	n/a	n/a	n/a	n/a	n/a	n/a	n/a	n/a	n/a	n/a	n/a	n/a	n/a	n/a	n/a	n/a	n/a	C2_06.jpg	500	0	973672	0	973672	0	TrialProc1	C2LowLargeEDBlockList	2500	0	971172	0	971172	0	971172	2500	c	683	971855	96.998
108	2.5	000_R01_VA_allProc	89	1	"<?xml version=""1.0""?>\n<Clock xmlns:dt=""urn:schemas-microsoft-com:datatypes""><Description dt:dt=""string"">E-Prime Primary Realtime Clock</Description><StartTime><Timestamp dt:dt=""int"">0</Timestamp><DateUtc dt:dt=""string"">2019-12-03T22:31:14Z</DateUtc></StartTime><FrequencyChanges><FrequencyChange><Frequency dt:dt=""r8"">3020410</Frequency><Timestamp dt:dt=""r8"">75306034759</Timestamp><Current dt:dt=""r8"">0</Current><DateUtc dt:dt=""string"">2019-12-03T22:31:14Z</DateUtc></FrequencyChange></FrequencyChanges></Clock>\n"	000_R01_VA_allProc-89-1	60.002	1.0.0.229	1	-2002784074	Professional	2.0.10.356	2.0.10.356	12-03-2019	n/a	17:31:14	2.0.10.252	5	0	0	874174	16	874174	4000	-999999	1037621	-1	1034170	0	Run2Proc	5	1	5	RunList	5	LowSmall	8000	0	1000171	0	1000171	0	1000171	0	D2LowSmallEDBlockProc	n/a	n/a	n/a	5.0	1.0	5.0	n/a	n/a	n/a	n/a	n/a	n/a	n/a	n/a	n/a	Run2BlockList	1	n/a	n/a	n/a	n/a	n/a	n/a	n/a	n/a	n/a	n/a	n/a	n/a	n/a	n/a	n/a	n/a	n/a	n/a	n/a	n/a	n/a	n/a	n/a	n/a	n/a	n/a	n/a	n/a	n/a	n/a	n/a	n/a	n/a	n/a	n/a	n/a	n/a	n/a	n/a	n/a	n/a	n/a	n/a	n/a	n/a	n/a	n/a	n/a	1.0	1.0	1.0	n/a	n/a	n/a	n/a	n/a	n/a	n/a	n/a	n/a	n/a	n/a	n/a	n/a	n/a	n/a	n/a	n/a	n/a	n/a	n/a	n/a	n/a	n/a	n/a	n/a	n/a	n/a	n/a	n/a	n/a	n/a	n/a	n/a	n/a	n/a	n/a	n/a	n/a	n/a	D2_01.jpg	500	1	984672	-1	984671	0	TrialProc1	D2HighLargeEDBlockList	2500	0	982172	0	982172	0	982172	2499	c	1034	983206	107.998
111	2.5	000_R01_VA_allProc	89	1	"<?xml version=""1.0""?>\n<Clock xmlns:dt=""urn:schemas-microsoft-com:datatypes""><Description dt:dt=""string"">E-Prime Primary Realtime Clock</Description><StartTime><Timestamp dt:dt=""int"">0</Timestamp><DateUtc dt:dt=""string"">2019-12-03T22:31:14Z</DateUtc></StartTime><FrequencyChanges><FrequencyChange><Frequency dt:dt=""r8"">3020410</Frequency><Timestamp dt:dt=""r8"">75306034759</Timestamp><Current dt:dt=""r8"">0</Current><DateUtc dt:dt=""string"">2019-12-03T22:31:14Z</DateUtc></FrequencyChange></FrequencyChanges></Clock>\n"	000_R01_VA_allProc-89-1	60.002	1.0.0.229	1	-2002784074	Professional	2.0.10.356	2.0.10.356	12-03-2019	n/a	17:31:14	2.0.10.252	5	0	0	874174	16	874174	4000	-999999	1037621	-1	1034170	0	Run2Proc	5	1	5	RunList	5	LowSmall	8000	0	1000171	0	1000171	0	1000171	0	D2LowSmallEDBlockProc	n/a	n/a	n/a	5.0	1.0	5.0	n/a	n/a	n/a	n/a	n/a	n/a	n/a	n/a	n/a	Run2BlockList	2	n/a	n/a	n/a	n/a	n/a	n/a	n/a	n/a	n/a	n/a	n/a	n/a	n/a	n/a	n/a	n/a	n/a	n/a	n/a	n/a	n/a	n/a	n/a	n/a	n/a	n/a	n/a	n/a	n/a	n/a	n/a	n/a	n/a	n/a	n/a	n/a	n/a	n/a	n/a	n/a	n/a	n/a	n/a	n/a	n/a	n/a	n/a	n/a	2.0	1.0	2.0	n/a	n/a	n/a	n/a	n/a	n/a	n/a	n/a	n/a	n/a	n/a	n/a	n/a	n/a	n/a	n/a	n/a	n/a	n/a	n/a	n/a	n/a	n/a	n/a	n/a	n/a	n/a	n/a	n/a	n/a	n/a	n/a	n/a	n/a	n/a	n/a	n/a	n/a	n/a	D2_02.jpg	500	0	987672	0	987671	0	TrialProc1	D2HighLargeEDBlockList	2500	1	985172	1	985172	0	985171	2500	c	555	985726	110.997
114	2.5	000_R01_VA_allProc	89	1	"<?xml version=""1.0""?>\n<Clock xmlns:dt=""urn:schemas-microsoft-com:datatypes""><Description dt:dt=""string"">E-Prime Primary Realtime Clock</Description><StartTime><Timestamp dt:dt=""int"">0</Timestamp><DateUtc dt:dt=""string"">2019-12-03T22:31:14Z</DateUtc></StartTime><FrequencyChanges><FrequencyChange><Frequency dt:dt=""r8"">3020410</Frequency><Timestamp dt:dt=""r8"">75306034759</Timestamp><Current dt:dt=""r8"">0</Current><DateUtc dt:dt=""string"">2019-12-03T22:31:14Z</DateUtc></FrequencyChange></FrequencyChanges></Clock>\n"	000_R01_VA_allProc-89-1	60.002	1.0.0.229	1	-2002784074	Professional	2.0.10.356	2.0.10.356	12-03-2019	n/a	17:31:14	2.0.10.252	5	0	0	874174	16	874174	4000	-999999	1037621	-1	1034170	0	Run2Proc	5	1	5	RunList	5	LowSmall	8000	0	1000171	0	1000171	0	1000171	0	D2LowSmallEDBlockProc	n/a	n/a	n/a	5.0	1.0	5.0	n/a	n/a	n/a	n/a	n/a	n/a	n/a	n/a	n/a	Run2BlockList	3	n/a	n/a	n/a	n/a	n/a	n/a	n/a	n/a	n/a	n/a	n/a	n/a	n/a	n/a	n/a	n/a	n/a	n/a	n/a	n/a	n/a	n/a	n/a	n/a	n/a	n/a	n/a	n/a	n/a	n/a	n/a	n/a	n/a	n/a	n/a	n/a	n/a	n/a	n/a	n/a	n/a	n/a	n/a	n/a	n/a	n/a	n/a	n/a	3.0	1.0	3.0	n/a	n/a	n/a	n/a	n/a	n/a	n/a	n/a	n/a	n/a	n/a	n/a	n/a	n/a	n/a	n/a	n/a	n/a	n/a	n/a	n/a	n/a	n/a	n/a	n/a	n/a	n/a	n/a	n/a	n/a	n/a	n/a	n/a	n/a	n/a	n/a	n/a	n/a	n/a	D2_03.jpg	500	0	990671	0	990671	0	TrialProc1	D2HighLargeEDBlockList	2500	0	988172	0	988171	0	988171	2500	c	523	988694	113.997
117	2.5	000_R01_VA_allProc	89	1	"<?xml version=""1.0""?>\n<Clock xmlns:dt=""urn:schemas-microsoft-com:datatypes""><Description dt:dt=""string"">E-Prime Primary Realtime Clock</Description><StartTime><Timestamp dt:dt=""int"">0</Timestamp><DateUtc dt:dt=""string"">2019-12-03T22:31:14Z</DateUtc></StartTime><FrequencyChanges><FrequencyChange><Frequency dt:dt=""r8"">3020410</Frequency><Timestamp dt:dt=""r8"">75306034759</Timestamp><Current dt:dt=""r8"">0</Current><DateUtc dt:dt=""string"">2019-12-03T22:31:14Z</DateUtc></FrequencyChange></FrequencyChanges></Clock>\n"	000_R01_VA_allProc-89-1	60.002	1.0.0.229	1	-2002784074	Professional	2.0.10.356	2.0.10.356	12-03-2019	n/a	17:31:14	2.0.10.252	5	0	0	874174	16	874174	4000	-999999	1037621	-1	1034170	0	Run2Proc	5	1	5	RunList	5	LowSmall	8000	0	1000171	0	1000171	0	1000171	0	D2LowSmallEDBlockProc	n/a	n/a	n/a	5.0	1.0	5.0	n/a	n/a	n/a	n/a	n/a	n/a	n/a	n/a	n/a	Run2BlockList	4	n/a	n/a	n/a	n/a	n/a	n/a	n/a	n/a	n/a	n/a	n/a	n/a	n/a	n/a	n/a	n/a	n/a	n/a	n/a	n/a	n/a	n/a	n/a	n/a	n/a	n/a	n/a	n/a	n/a	n/a	n/a	n/a	n/a	n/a	n/a	n/a	n/a	n/a	n/a	n/a	n/a	n/a	n/a	n/a	n/a	n/a	n/a	n/a	4.0	1.0	4.0	n/a	n/a	n/a	n/a	n/a	n/a	n/a	n/a	n/a	n/a	n/a	n/a	n/a	n/a	n/a	n/a	n/a	n/a	n/a	n/a	n/a	n/a	n/a	n/a	n/a	n/a	n/a	n/a	n/a	n/a	n/a	n/a	n/a	n/a	n/a	n/a	n/a	n/a	n/a	D2_04.jpg	500	0	993671	0	993671	0	TrialProc1	D2HighLargeEDBlockList	2500	0	991171	0	991171	0	991171	2500	c	923	992094	116.997
120	2.5	000_R01_VA_allProc	89	1	"<?xml version=""1.0""?>\n<Clock xmlns:dt=""urn:schemas-microsoft-com:datatypes""><Description dt:dt=""string"">E-Prime Primary Realtime Clock</Description><StartTime><Timestamp dt:dt=""int"">0</Timestamp><DateUtc dt:dt=""string"">2019-12-03T22:31:14Z</DateUtc></StartTime><FrequencyChanges><FrequencyChange><Frequency dt:dt=""r8"">3020410</Frequency><Timestamp dt:dt=""r8"">75306034759</Timestamp><Current dt:dt=""r8"">0</Current><DateUtc dt:dt=""string"">2019-12-03T22:31:14Z</DateUtc></FrequencyChange></FrequencyChanges></Clock>\n"	000_R01_VA_allProc-89-1	60.002	1.0.0.229	1	-2002784074	Professional	2.0.10.356	2.0.10.356	12-03-2019	n/a	17:31:14	2.0.10.252	5	0	0	874174	16	874174	4000	-999999	1037621	-1	1034170	0	Run2Proc	5	1	5	RunList	5	LowSmall	8000	0	1000171	0	1000171	0	1000171	0	D2LowSmallEDBlockProc	n/a	n/a	n/a	5.0	1.0	5.0	n/a	n/a	n/a	n/a	n/a	n/a	n/a	n/a	n/a	Run2BlockList	5	n/a	n/a	n/a	n/a	n/a	n/a	n/a	n/a	n/a	n/a	n/a	n/a	n/a	n/a	n/a	n/a	n/a	n/a	n/a	n/a	n/a	n/a	n/a	n/a	n/a	n/a	n/a	n/a	n/a	n/a	n/a	n/a	n/a	n/a	n/a	n/a	n/a	n/a	n/a	n/a	n/a	n/a	n/a	n/a	n/a	n/a	n/a	n/a	5.0	1.0	5.0	n/a	n/a	n/a	n/a	n/a	n/a	n/a	n/a	n/a	n/a	n/a	n/a	n/a	n/a	n/a	n/a	n/a	n/a	n/a	n/a	n/a	n/a	n/a	n/a	n/a	n/a	n/a	n/a	n/a	n/a	n/a	n/a	n/a	n/a	n/a	n/a	n/a	n/a	n/a	D2_05.jpg	500	0	996671	0	996671	0	TrialProc1	D2HighLargeEDBlockList	2500	0	994171	0	994171	0	994171	2500	c	1115	995286	119.997
123	2.5	000_R01_VA_allProc	89	1	"<?xml version=""1.0""?>\n<Clock xmlns:dt=""urn:schemas-microsoft-com:datatypes""><Description dt:dt=""string"">E-Prime Primary Realtime Clock</Description><StartTime><Timestamp dt:dt=""int"">0</Timestamp><DateUtc dt:dt=""string"">2019-12-03T22:31:14Z</DateUtc></StartTime><FrequencyChanges><FrequencyChange><Frequency dt:dt=""r8"">3020410</Frequency><Timestamp dt:dt=""r8"">75306034759</Timestamp><Current dt:dt=""r8"">0</Current><DateUtc dt:dt=""string"">2019-12-03T22:31:14Z</DateUtc></FrequencyChange></FrequencyChanges></Clock>\n"	000_R01_VA_allProc-89-1	60.002	1.0.0.229	1	-2002784074	Professional	2.0.10.356	2.0.10.356	12-03-2019	n/a	17:31:14	2.0.10.252	5	0	0	874174	16	874174	4000	-999999	1037621	-1	1034170	0	Run2Proc	5	1	5	RunList	5	LowSmall	8000	0	1000171	0	1000171	0	1000171	0	D2LowSmallEDBlockProc	n/a	n/a	n/a	5.0	1.0	5.0	n/a	n/a	n/a	n/a	n/a	n/a	n/a	n/a	n/a	Run2BlockList	6	n/a	n/a	n/a	n/a	n/a	n/a	n/a	n/a	n/a	n/a	n/a	n/a	n/a	n/a	n/a	n/a	n/a	n/a	n/a	n/a	n/a	n/a	n/a	n/a	n/a	n/a	n/a	n/a	n/a	n/a	n/a	n/a	n/a	n/a	n/a	n/a	n/a	n/a	n/a	n/a	n/a	n/a	n/a	n/a	n/a	n/a	n/a	n/a	6.0	1.0	6.0	n/a	n/a	n/a	n/a	n/a	n/a	n/a	n/a	n/a	n/a	n/a	n/a	n/a	n/a	n/a	n/a	n/a	n/a	n/a	n/a	n/a	n/a	n/a	n/a	n/a	n/a	n/a	n/a	n/a	n/a	n/a	n/a	n/a	n/a	n/a	n/a	n/a	n/a	n/a	D2_06.jpg	500	0	999671	0	999671	0	TrialProc1	D2HighLargeEDBlockList	2500	0	997171	0	997171	0	997171	2500	c	859	998030	122.997
134	2.5	000_R01_VA_allProc	89	1	"<?xml version=""1.0""?>\n<Clock xmlns:dt=""urn:schemas-microsoft-com:datatypes""><Description dt:dt=""string"">E-Prime Primary Realtime Clock</Description><StartTime><Timestamp dt:dt=""int"">0</Timestamp><DateUtc dt:dt=""string"">2019-12-03T22:31:14Z</DateUtc></StartTime><FrequencyChanges><FrequencyChange><Frequency dt:dt=""r8"">3020410</Frequency><Timestamp dt:dt=""r8"">75306034759</Timestamp><Current dt:dt=""r8"">0</Current><DateUtc dt:dt=""string"">2019-12-03T22:31:14Z</DateUtc></FrequencyChange></FrequencyChanges></Clock>\n"	000_R01_VA_allProc-89-1	60.002	1.0.0.229	1	-2002784074	Professional	2.0.10.356	2.0.10.356	12-03-2019	n/a	17:31:14	2.0.10.252	5	0	0	874174	16	874174	4000	-999999	1037621	-1	1034170	0	Run2Proc	5	1	5	RunList	6	OfficeSmall	8000	0	1026171	0	1026171	0	1026171	0	F2OfficeSmallBlockProc	n/a	n/a	n/a	6.0	1.0	6.0	n/a	n/a	n/a	n/a	n/a	n/a	n/a	n/a	n/a	Run2BlockList	1	n/a	n/a	n/a	n/a	n/a	n/a	n/a	n/a	n/a	n/a	n/a	n/a	n/a	n/a	n/a	n/a	n/a	n/a	n/a	n/a	n/a	n/a	n/a	n/a	n/a	n/a	n/a	n/a	n/a	n/a	n/a	n/a	n/a	n/a	n/a	n/a	n/a	n/a	n/a	n/a	n/a	n/a	n/a	n/a	n/a	n/a	n/a	n/a	n/a	n/a	n/a	n/a	n/a	n/a	n/a	n/a	n/a	n/a	n/a	n/a	n/a	n/a	n/a	n/a	n/a	n/a	n/a	n/a	n/a	n/a	n/a	n/a	n/a	n/a	n/a	n/a	n/a	n/a	1.0	1.0	1.0	n/a	n/a	n/a	n/a	n/a	n/a	n/a	n/a	n/a	F2_01.jpg	500	0	1010671	0	1010671	0	TrialProc1	F2OfficeSmallBlockList	2500	0	1008171	0	1008171	0	1008171	2500	c	1083	1009254	133.997
137	2.5	000_R01_VA_allProc	89	1	"<?xml version=""1.0""?>\n<Clock xmlns:dt=""urn:schemas-microsoft-com:datatypes""><Description dt:dt=""string"">E-Prime Primary Realtime Clock</Description><StartTime><Timestamp dt:dt=""int"">0</Timestamp><DateUtc dt:dt=""string"">2019-12-03T22:31:14Z</DateUtc></StartTime><FrequencyChanges><FrequencyChange><Frequency dt:dt=""r8"">3020410</Frequency><Timestamp dt:dt=""r8"">75306034759</Timestamp><Current dt:dt=""r8"">0</Current><DateUtc dt:dt=""string"">2019-12-03T22:31:14Z</DateUtc></FrequencyChange></FrequencyChanges></Clock>\n"	000_R01_VA_allProc-89-1	60.002	1.0.0.229	1	-2002784074	Professional	2.0.10.356	2.0.10.356	12-03-2019	n/a	17:31:14	2.0.10.252	5	0	0	874174	16	874174	4000	-999999	1037621	-1	1034170	0	Run2Proc	5	1	5	RunList	6	OfficeSmall	8000	0	1026171	0	1026171	0	1026171	0	F2OfficeSmallBlockProc	n/a	n/a	n/a	6.0	1.0	6.0	n/a	n/a	n/a	n/a	n/a	n/a	n/a	n/a	n/a	Run2BlockList	2	n/a	n/a	n/a	n/a	n/a	n/a	n/a	n/a	n/a	n/a	n/a	n/a	n/a	n/a	n/a	n/a	n/a	n/a	n/a	n/a	n/a	n/a	n/a	n/a	n/a	n/a	n/a	n/a	n/a	n/a	n/a	n/a	n/a	n/a	n/a	n/a	n/a	n/a	n/a	n/a	n/a	n/a	n/a	n/a	n/a	n/a	n/a	n/a	n/a	n/a	n/a	n/a	n/a	n/a	n/a	n/a	n/a	n/a	n/a	n/a	n/a	n/a	n/a	n/a	n/a	n/a	n/a	n/a	n/a	n/a	n/a	n/a	n/a	n/a	n/a	n/a	n/a	n/a	2.0	1.0	2.0	n/a	n/a	n/a	n/a	n/a	n/a	n/a	n/a	n/a	F2_02.jpg	500	0	1013671	0	1013671	0	TrialProc1	F2OfficeSmallBlockList	2500	0	1011171	0	1011171	0	1011171	2500	c	979	1012150	136.997
140	2.5	000_R01_VA_allProc	89	1	"<?xml version=""1.0""?>\n<Clock xmlns:dt=""urn:schemas-microsoft-com:datatypes""><Description dt:dt=""string"">E-Prime Primary Realtime Clock</Description><StartTime><Timestamp dt:dt=""int"">0</Timestamp><DateUtc dt:dt=""string"">2019-12-03T22:31:14Z</DateUtc></StartTime><FrequencyChanges><FrequencyChange><Frequency dt:dt=""r8"">3020410</Frequency><Timestamp dt:dt=""r8"">75306034759</Timestamp><Current dt:dt=""r8"">0</Current><DateUtc dt:dt=""string"">2019-12-03T22:31:14Z</DateUtc></FrequencyChange></FrequencyChanges></Clock>\n"	000_R01_VA_allProc-89-1	60.002	1.0.0.229	1	-2002784074	Professional	2.0.10.356	2.0.10.356	12-03-2019	n/a	17:31:14	2.0.10.252	5	0	0	874174	16	874174	4000	-999999	1037621	-1	1034170	0	Run2Proc	5	1	5	RunList	6	OfficeSmall	8000	0	1026171	0	1026171	0	1026171	0	F2OfficeSmallBlockProc	n/a	n/a	n/a	6.0	1.0	6.0	n/a	n/a	n/a	n/a	n/a	n/a	n/a	n/a	n/a	Run2BlockList	3	n/a	n/a	n/a	n/a	n/a	n/a	n/a	n/a	n/a	n/a	n/a	n/a	n/a	n/a	n/a	n/a	n/a	n/a	n/a	n/a	n/a	n/a	n/a	n/a	n/a	n/a	n/a	n/a	n/a	n/a	n/a	n/a	n/a	n/a	n/a	n/a	n/a	n/a	n/a	n/a	n/a	n/a	n/a	n/a	n/a	n/a	n/a	n/a	n/a	n/a	n/a	n/a	n/a	n/a	n/a	n/a	n/a	n/a	n/a	n/a	n/a	n/a	n/a	n/a	n/a	n/a	n/a	n/a	n/a	n/a	n/a	n/a	n/a	n/a	n/a	n/a	n/a	n/a	3.0	1.0	3.0	n/a	n/a	n/a	n/a	n/a	n/a	n/a	n/a	n/a	F2_03.jpg	500	0	1016671	0	1016671	0	TrialProc1	F2OfficeSmallBlockList	2500	0	1014171	0	1014171	0	1014171	2500	c	1867	1016038	139.997
143	2.5	000_R01_VA_allProc	89	1	"<?xml version=""1.0""?>\n<Clock xmlns:dt=""urn:schemas-microsoft-com:datatypes""><Description dt:dt=""string"">E-Prime Primary Realtime Clock</Description><StartTime><Timestamp dt:dt=""int"">0</Timestamp><DateUtc dt:dt=""string"">2019-12-03T22:31:14Z</DateUtc></StartTime><FrequencyChanges><FrequencyChange><Frequency dt:dt=""r8"">3020410</Frequency><Timestamp dt:dt=""r8"">75306034759</Timestamp><Current dt:dt=""r8"">0</Current><DateUtc dt:dt=""string"">2019-12-03T22:31:14Z</DateUtc></FrequencyChange></FrequencyChanges></Clock>\n"	000_R01_VA_allProc-89-1	60.002	1.0.0.229	1	-2002784074	Professional	2.0.10.356	2.0.10.356	12-03-2019	n/a	17:31:14	2.0.10.252	5	0	0	874174	16	874174	4000	-999999	1037621	-1	1034170	0	Run2Proc	5	1	5	RunList	6	OfficeSmall	8000	0	1026171	0	1026171	0	1026171	0	F2OfficeSmallBlockProc	n/a	n/a	n/a	6.0	1.0	6.0	n/a	n/a	n/a	n/a	n/a	n/a	n/a	n/a	n/a	Run2BlockList	4	n/a	n/a	n/a	n/a	n/a	n/a	n/a	n/a	n/a	n/a	n/a	n/a	n/a	n/a	n/a	n/a	n/a	n/a	n/a	n/a	n/a	n/a	n/a	n/a	n/a	n/a	n/a	n/a	n/a	n/a	n/a	n/a	n/a	n/a	n/a	n/a	n/a	n/a	n/a	n/a	n/a	n/a	n/a	n/a	n/a	n/a	n/a	n/a	n/a	n/a	n/a	n/a	n/a	n/a	n/a	n/a	n/a	n/a	n/a	n/a	n/a	n/a	n/a	n/a	n/a	n/a	n/a	n/a	n/a	n/a	n/a	n/a	n/a	n/a	n/a	n/a	n/a	n/a	4.0	1.0	4.0	n/a	n/a	n/a	n/a	n/a	n/a	n/a	n/a	n/a	F2_04.jpg	500	0	1019671	0	1019671	0	TrialProc1	F2OfficeSmallBlockList	2500	0	1017171	0	1017171	0	1017171	2500	c	1323	1018494	142.997
146	2.5	000_R01_VA_allProc	89	1	"<?xml version=""1.0""?>\n<Clock xmlns:dt=""urn:schemas-microsoft-com:datatypes""><Description dt:dt=""string"">E-Prime Primary Realtime Clock</Description><StartTime><Timestamp dt:dt=""int"">0</Timestamp><DateUtc dt:dt=""string"">2019-12-03T22:31:14Z</DateUtc></StartTime><FrequencyChanges><FrequencyChange><Frequency dt:dt=""r8"">3020410</Frequency><Timestamp dt:dt=""r8"">75306034759</Timestamp><Current dt:dt=""r8"">0</Current><DateUtc dt:dt=""string"">2019-12-03T22:31:14Z</DateUtc></FrequencyChange></FrequencyChanges></Clock>\n"	000_R01_VA_allProc-89-1	60.002	1.0.0.229	1	-2002784074	Professional	2.0.10.356	2.0.10.356	12-03-2019	n/a	17:31:14	2.0.10.252	5	0	0	874174	16	874174	4000	-999999	1037621	-1	1034170	0	Run2Proc	5	1	5	RunList	6	OfficeSmall	8000	0	1026171	0	1026171	0	1026171	0	F2OfficeSmallBlockProc	n/a	n/a	n/a	6.0	1.0	6.0	n/a	n/a	n/a	n/a	n/a	n/a	n/a	n/a	n/a	Run2BlockList	5	n/a	n/a	n/a	n/a	n/a	n/a	n/a	n/a	n/a	n/a	n/a	n/a	n/a	n/a	n/a	n/a	n/a	n/a	n/a	n/a	n/a	n/a	n/a	n/a	n/a	n/a	n/a	n/a	n/a	n/a	n/a	n/a	n/a	n/a	n/a	n/a	n/a	n/a	n/a	n/a	n/a	n/a	n/a	n/a	n/a	n/a	n/a	n/a	n/a	n/a	n/a	n/a	n/a	n/a	n/a	n/a	n/a	n/a	n/a	n/a	n/a	n/a	n/a	n/a	n/a	n/a	n/a	n/a	n/a	n/a	n/a	n/a	n/a	n/a	n/a	n/a	n/a	n/a	5.0	1.0	5.0	n/a	n/a	n/a	n/a	n/a	n/a	n/a	n/a	n/a	F2_05.jpg	500	0	1022671	0	1022671	0	TrialProc1	F2OfficeSmallBlockList	2500	0	1020171	0	1020171	0	1020171	2500	c	899	1021070	145.997
149	2.5	000_R01_VA_allProc	89	1	"<?xml version=""1.0""?>\n<Clock xmlns:dt=""urn:schemas-microsoft-com:datatypes""><Description dt:dt=""string"">E-Prime Primary Realtime Clock</Description><StartTime><Timestamp dt:dt=""int"">0</Timestamp><DateUtc dt:dt=""string"">2019-12-03T22:31:14Z</DateUtc></StartTime><FrequencyChanges><FrequencyChange><Frequency dt:dt=""r8"">3020410</Frequency><Timestamp dt:dt=""r8"">75306034759</Timestamp><Current dt:dt=""r8"">0</Current><DateUtc dt:dt=""string"">2019-12-03T22:31:14Z</DateUtc></FrequencyChange></FrequencyChanges></Clock>\n"	000_R01_VA_allProc-89-1	60.002	1.0.0.229	1	-2002784074	Professional	2.0.10.356	2.0.10.356	12-03-2019	n/a	17:31:14	2.0.10.252	5	0	0	874174	16	874174	4000	-999999	1037621	-1	1034170	0	Run2Proc	5	1	5	RunList	6	OfficeSmall	8000	0	1026171	0	1026171	0	1026171	0	F2OfficeSmallBlockProc	n/a	n/a	n/a	6.0	1.0	6.0	n/a	n/a	n/a	n/a	n/a	n/a	n/a	n/a	n/a	Run2BlockList	6	n/a	n/a	n/a	n/a	n/a	n/a	n/a	n/a	n/a	n/a	n/a	n/a	n/a	n/a	n/a	n/a	n/a	n/a	n/a	n/a	n/a	n/a	n/a	n/a	n/a	n/a	n/a	n/a	n/a	n/a	n/a	n/a	n/a	n/a	n/a	n/a	n/a	n/a	n/a	n/a	n/a	n/a	n/a	n/a	n/a	n/a	n/a	n/a	n/a	n/a	n/a	n/a	n/a	n/a	n/a	n/a	n/a	n/a	n/a	n/a	n/a	n/a	n/a	n/a	n/a	n/a	n/a	n/a	n/a	n/a	n/a	n/a	n/a	n/a	n/a	n/a	n/a	n/a	6.0	1.0	6.0	n/a	n/a	n/a	n/a	n/a	n/a	n/a	n/a	n/a	F2_06.jpg	500	0	1025671	0	1025671	0	TrialProc1	F2OfficeSmallBlockList	2500	0	1023171	0	1023171	0	1023171	2500	c	947	1024118	148.997
