onset	duration	experiment_name	sub	ses	clock_information	datafile_basename	display_refreshrate	experiment_version	group	randomseed	runtime_capabilities	runtime_version	runtimeversionexpected	session_date	session_start_date_time_utc	session_time	studio_version	block	fixation2trs_durationerror	fixation2trs_offsetdelay	fixation2trs_offsettime	fixation2trs_onsetdelay	fixation2trs_onsettime	fixation2trs_onsettoonsettime	goodwork_durationerror	goodwork_finishtime	goodwork_onsetdelay	goodwork_onsettime	goodwork_onsettoonsettime	procedure_block	runlist	runlist_cycle	runlist_sample	running_block	trial	condition	interblockinterval_duration	interblockinterval_durationerror	interblockinterval_finishtime	interblockinterval_offsetdelay	interblockinterval_offsettime	interblockinterval_onsetdelay	interblockinterval_onsettime	interblockinterval_onsettoonsettime	procedure_trial	run1blocklist	run1blocklist_cycle	run1blocklist_sample	run2blocklist	run2blocklist_cycle	run2blocklist_sample	run3blocklist	run3blocklist_cycle	run3blocklist_sample	run4blocklist	run4blocklist_cycle	run4blocklist_sample	run5blocklist	run5blocklist_cycle	run5blocklist_sample	running_trial	subtrial	a1highlargeedblocklist	a1highlargeedblocklist_cycle	a1highlargeedblocklist_sample	a2highlargeedblocklist	a2highlargeedblocklist_cycle	a2highlargeedblocklist_sample	a3highlargeedblocklist	a3highlargeedblocklist_cycle	a3highlargeedblocklist_sample	a4highlargeedblocklist	a4highlargeedblocklist_cycle	a4highlargeedblocklist_sample	a5highlargeedblocklist	a5highlargeedblocklist_cycle	a5highlargeedblocklist_sample	b1highsmalledblocklist	b1highsmalledblocklist_cycle	b1highsmalledblocklist_sample	b2highsmalledblocklist	b2highsmalledblocklist_cycle	b2highsmalledblocklist_sample	b3highsmalledblocklist	b3highsmalledblocklist_cycle	b3highsmalledblocklist_sample	b4highsmalledblocklist	b4highsmalledblocklist_cycle	b4highsmalledblocklist_sample	b5highsmalledblocklist	b5highsmalledblocklist_cycle	b5highsmalledblocklist_sample	c1lowlargeedblocklist	c1lowlargeedblocklist_cycle	c1lowlargeedblocklist_sample	c2lowlargeedblocklist	c2lowlargeedblocklist_cycle	c2lowlargeedblocklist_sample	c3lowlargeedblocklist	c3lowlargeedblocklist_cycle	c3lowlargeedblocklist_sample	c4lowlargeedblocklist	c4lowlargeedblocklist_cycle	c4lowlargeedblocklist_sample	c5lowlargeedblocklist	c5lowlargeedblocklist_cycle	c5lowlargeedblocklist_sample	d1lowsmalledblocklist	d1lowsmalledblocklist_cycle	d1lowsmalledblocklist_sample	d2highlargeedblocklist	d2highlargeedblocklist_cycle	d2highlargeedblocklist_sample	d3lowsmalledblocklist	d3lowsmalledblocklist_cycle	d3lowsmalledblocklist_sample	d4lowsmalledblocklist	d4lowsmalledblocklist_cycle	d4lowsmalledblocklist_sample	d5lowsmalledblocklist	d5lowsmalledblocklist_cycle	d5lowsmalledblocklist_sample	e1officelargeblocklist	e1officelargeblocklist_cycle	e1officelargeblocklist_sample	e2officelargeblocklist	e2officelargeblocklist_cycle	e2officelargeblocklist_sample	e3officelargeblocklist	e3officelargeblocklist_cycle	e3officelargeblocklist_sample	e4officelargeblocklist	e4officelargeblocklist_cycle	e4officelargeblocklist_sample	e5officelargeblocklist	e5officelargeblocklist_cycle	e5officelargeblocklist_sample	f1officesmallblocklist	f1officesmallblocklist_cycle	f1officesmallblocklist_sample	f2officesmallblocklist	f2officesmallblocklist_cycle	f2officesmallblocklist_sample	f3officesmallblocklist	f3officesmallblocklist_cycle	f3officesmallblocklist_sample	f4officesmallblocklist	f4officesmallblocklist_cycle	f4officesmallblocklist_sample	f5officesmallblocklist	f5officesmallblocklist_cycle	f5officesmallblocklist_sample	filename	isi_duration	isi_durationerror	isi_finishtime	isi_onsetdelay	isi_onsettime	isi_onsettoonsettime	procedure_subtrial	running_subtrial	stimslide_duration	stimslide_durationerror	stimslide_finishtime	stimslide_offsetdelay	stimslide_offsettime	stimslide_onsetdelay	stimslide_onsettime	stimslide_onsettoonsettime	stimslide_resp	stimslide_rt	stimslide_rttime	onset_unrounded
4	2.5	000_R01_VA_allProc	48	1	"<?xml version=""1.0""?>\n<Clock xmlns:dt=""urn:schemas-microsoft-com:datatypes""><Description dt:dt=""string"">E-Prime Primary Realtime Clock</Description><StartTime><Timestamp dt:dt=""int"">0</Timestamp><DateUtc dt:dt=""string"">2019-08-02T18:38:49Z</DateUtc></StartTime><FrequencyChanges><FrequencyChange><Frequency dt:dt=""r8"">3020419</Frequency><Timestamp dt:dt=""r8"">295534290659</Timestamp><Current dt:dt=""r8"">0</Current><DateUtc dt:dt=""string"">2019-08-02T18:38:49Z</DateUtc></FrequencyChange></FrequencyChanges></Clock>\n"	000_R01_VA_allProc-48-1	60.023	1.0.0.183	1	-817872492	Professional	2.0.10.356	2.0.10.356	08-02-2019	8/2/2019 6:38:49 PM	14:38:49	2.0.10.252	4	1	1	629483	7	629482	3999	-999999	804812	-3	789422	0	Run5Proc	4	1	4	RunList	1	LowLargeED	8000	0	651474	0	651474	0	651474	0	C5LowLargeEDBlockProc	n/a	n/a	n/a	n/a	n/a	n/a	n/a	n/a	n/a	n/a	n/a	n/a	1.0	1.0	1.0	Run5BlockList	1	n/a	n/a	n/a	n/a	n/a	n/a	n/a	n/a	n/a	n/a	n/a	n/a	n/a	n/a	n/a	n/a	n/a	n/a	n/a	n/a	n/a	n/a	n/a	n/a	n/a	n/a	n/a	n/a	n/a	n/a	n/a	n/a	n/a	n/a	n/a	n/a	n/a	n/a	n/a	n/a	n/a	n/a	1.0	1.0	1.0	n/a	n/a	n/a	n/a	n/a	n/a	n/a	n/a	n/a	n/a	n/a	n/a	n/a	n/a	n/a	n/a	n/a	n/a	n/a	n/a	n/a	n/a	n/a	n/a	n/a	n/a	n/a	n/a	n/a	n/a	n/a	n/a	n/a	n/a	n/a	n/a	n/a	n/a	n/a	n/a	n/a	n/a	n/a	n/a	n/a	C5_01.jpg	500	0	635980	-1	635980	0	TrialProc1	C5LowLargeEDBlockList	2500	0	633481	0	633481	-1	633481	2499	d	1286	634767	4.0
7	2.5	000_R01_VA_allProc	48	1	"<?xml version=""1.0""?>\n<Clock xmlns:dt=""urn:schemas-microsoft-com:datatypes""><Description dt:dt=""string"">E-Prime Primary Realtime Clock</Description><StartTime><Timestamp dt:dt=""int"">0</Timestamp><DateUtc dt:dt=""string"">2019-08-02T18:38:49Z</DateUtc></StartTime><FrequencyChanges><FrequencyChange><Frequency dt:dt=""r8"">3020419</Frequency><Timestamp dt:dt=""r8"">295534290659</Timestamp><Current dt:dt=""r8"">0</Current><DateUtc dt:dt=""string"">2019-08-02T18:38:49Z</DateUtc></FrequencyChange></FrequencyChanges></Clock>\n"	000_R01_VA_allProc-48-1	60.023	1.0.0.183	1	-817872492	Professional	2.0.10.356	2.0.10.356	08-02-2019	8/2/2019 6:38:49 PM	14:38:49	2.0.10.252	4	1	1	629483	7	629482	3999	-999999	804812	-3	789422	0	Run5Proc	4	1	4	RunList	1	LowLargeED	8000	0	651474	0	651474	0	651474	0	C5LowLargeEDBlockProc	n/a	n/a	n/a	n/a	n/a	n/a	n/a	n/a	n/a	n/a	n/a	n/a	1.0	1.0	1.0	Run5BlockList	2	n/a	n/a	n/a	n/a	n/a	n/a	n/a	n/a	n/a	n/a	n/a	n/a	n/a	n/a	n/a	n/a	n/a	n/a	n/a	n/a	n/a	n/a	n/a	n/a	n/a	n/a	n/a	n/a	n/a	n/a	n/a	n/a	n/a	n/a	n/a	n/a	n/a	n/a	n/a	n/a	n/a	n/a	2.0	1.0	2.0	n/a	n/a	n/a	n/a	n/a	n/a	n/a	n/a	n/a	n/a	n/a	n/a	n/a	n/a	n/a	n/a	n/a	n/a	n/a	n/a	n/a	n/a	n/a	n/a	n/a	n/a	n/a	n/a	n/a	n/a	n/a	n/a	n/a	n/a	n/a	n/a	n/a	n/a	n/a	n/a	n/a	n/a	n/a	n/a	n/a	C5_02.jpg	500	0	638979	-1	638979	0	TrialProc1	C5LowLargeEDBlockList	2500	0	636480	0	636480	0	636480	2499	c	1207	637687	6.9990000000000006
10	2.5	000_R01_VA_allProc	48	1	"<?xml version=""1.0""?>\n<Clock xmlns:dt=""urn:schemas-microsoft-com:datatypes""><Description dt:dt=""string"">E-Prime Primary Realtime Clock</Description><StartTime><Timestamp dt:dt=""int"">0</Timestamp><DateUtc dt:dt=""string"">2019-08-02T18:38:49Z</DateUtc></StartTime><FrequencyChanges><FrequencyChange><Frequency dt:dt=""r8"">3020419</Frequency><Timestamp dt:dt=""r8"">295534290659</Timestamp><Current dt:dt=""r8"">0</Current><DateUtc dt:dt=""string"">2019-08-02T18:38:49Z</DateUtc></FrequencyChange></FrequencyChanges></Clock>\n"	000_R01_VA_allProc-48-1	60.023	1.0.0.183	1	-817872492	Professional	2.0.10.356	2.0.10.356	08-02-2019	8/2/2019 6:38:49 PM	14:38:49	2.0.10.252	4	1	1	629483	7	629482	3999	-999999	804812	-3	789422	0	Run5Proc	4	1	4	RunList	1	LowLargeED	8000	0	651474	0	651474	0	651474	0	C5LowLargeEDBlockProc	n/a	n/a	n/a	n/a	n/a	n/a	n/a	n/a	n/a	n/a	n/a	n/a	1.0	1.0	1.0	Run5BlockList	3	n/a	n/a	n/a	n/a	n/a	n/a	n/a	n/a	n/a	n/a	n/a	n/a	n/a	n/a	n/a	n/a	n/a	n/a	n/a	n/a	n/a	n/a	n/a	n/a	n/a	n/a	n/a	n/a	n/a	n/a	n/a	n/a	n/a	n/a	n/a	n/a	n/a	n/a	n/a	n/a	n/a	n/a	3.0	1.0	3.0	n/a	n/a	n/a	n/a	n/a	n/a	n/a	n/a	n/a	n/a	n/a	n/a	n/a	n/a	n/a	n/a	n/a	n/a	n/a	n/a	n/a	n/a	n/a	n/a	n/a	n/a	n/a	n/a	n/a	n/a	n/a	n/a	n/a	n/a	n/a	n/a	n/a	n/a	n/a	n/a	n/a	n/a	n/a	n/a	n/a	C5_03.jpg	500	0	641978	-1	641978	0	TrialProc1	C5LowLargeEDBlockList	2500	0	639479	0	639479	0	639479	2499	d	1112	640591	9.998000000000001
13	2.5	000_R01_VA_allProc	48	1	"<?xml version=""1.0""?>\n<Clock xmlns:dt=""urn:schemas-microsoft-com:datatypes""><Description dt:dt=""string"">E-Prime Primary Realtime Clock</Description><StartTime><Timestamp dt:dt=""int"">0</Timestamp><DateUtc dt:dt=""string"">2019-08-02T18:38:49Z</DateUtc></StartTime><FrequencyChanges><FrequencyChange><Frequency dt:dt=""r8"">3020419</Frequency><Timestamp dt:dt=""r8"">295534290659</Timestamp><Current dt:dt=""r8"">0</Current><DateUtc dt:dt=""string"">2019-08-02T18:38:49Z</DateUtc></FrequencyChange></FrequencyChanges></Clock>\n"	000_R01_VA_allProc-48-1	60.023	1.0.0.183	1	-817872492	Professional	2.0.10.356	2.0.10.356	08-02-2019	8/2/2019 6:38:49 PM	14:38:49	2.0.10.252	4	1	1	629483	7	629482	3999	-999999	804812	-3	789422	0	Run5Proc	4	1	4	RunList	1	LowLargeED	8000	0	651474	0	651474	0	651474	0	C5LowLargeEDBlockProc	n/a	n/a	n/a	n/a	n/a	n/a	n/a	n/a	n/a	n/a	n/a	n/a	1.0	1.0	1.0	Run5BlockList	4	n/a	n/a	n/a	n/a	n/a	n/a	n/a	n/a	n/a	n/a	n/a	n/a	n/a	n/a	n/a	n/a	n/a	n/a	n/a	n/a	n/a	n/a	n/a	n/a	n/a	n/a	n/a	n/a	n/a	n/a	n/a	n/a	n/a	n/a	n/a	n/a	n/a	n/a	n/a	n/a	n/a	n/a	4.0	1.0	4.0	n/a	n/a	n/a	n/a	n/a	n/a	n/a	n/a	n/a	n/a	n/a	n/a	n/a	n/a	n/a	n/a	n/a	n/a	n/a	n/a	n/a	n/a	n/a	n/a	n/a	n/a	n/a	n/a	n/a	n/a	n/a	n/a	n/a	n/a	n/a	n/a	n/a	n/a	n/a	n/a	n/a	n/a	n/a	n/a	n/a	C5_04.jpg	500	0	644977	-1	644977	0	TrialProc1	C5LowLargeEDBlockList	2500	0	642478	0	642478	0	642478	2499	c	1385	643863	12.997
16	2.5	000_R01_VA_allProc	48	1	"<?xml version=""1.0""?>\n<Clock xmlns:dt=""urn:schemas-microsoft-com:datatypes""><Description dt:dt=""string"">E-Prime Primary Realtime Clock</Description><StartTime><Timestamp dt:dt=""int"">0</Timestamp><DateUtc dt:dt=""string"">2019-08-02T18:38:49Z</DateUtc></StartTime><FrequencyChanges><FrequencyChange><Frequency dt:dt=""r8"">3020419</Frequency><Timestamp dt:dt=""r8"">295534290659</Timestamp><Current dt:dt=""r8"">0</Current><DateUtc dt:dt=""string"">2019-08-02T18:38:49Z</DateUtc></FrequencyChange></FrequencyChanges></Clock>\n"	000_R01_VA_allProc-48-1	60.023	1.0.0.183	1	-817872492	Professional	2.0.10.356	2.0.10.356	08-02-2019	8/2/2019 6:38:49 PM	14:38:49	2.0.10.252	4	1	1	629483	7	629482	3999	-999999	804812	-3	789422	0	Run5Proc	4	1	4	RunList	1	LowLargeED	8000	0	651474	0	651474	0	651474	0	C5LowLargeEDBlockProc	n/a	n/a	n/a	n/a	n/a	n/a	n/a	n/a	n/a	n/a	n/a	n/a	1.0	1.0	1.0	Run5BlockList	5	n/a	n/a	n/a	n/a	n/a	n/a	n/a	n/a	n/a	n/a	n/a	n/a	n/a	n/a	n/a	n/a	n/a	n/a	n/a	n/a	n/a	n/a	n/a	n/a	n/a	n/a	n/a	n/a	n/a	n/a	n/a	n/a	n/a	n/a	n/a	n/a	n/a	n/a	n/a	n/a	n/a	n/a	5.0	1.0	5.0	n/a	n/a	n/a	n/a	n/a	n/a	n/a	n/a	n/a	n/a	n/a	n/a	n/a	n/a	n/a	n/a	n/a	n/a	n/a	n/a	n/a	n/a	n/a	n/a	n/a	n/a	n/a	n/a	n/a	n/a	n/a	n/a	n/a	n/a	n/a	n/a	n/a	n/a	n/a	n/a	n/a	n/a	n/a	n/a	n/a	C5_05.jpg	500	0	647976	0	647976	0	TrialProc1	C5LowLargeEDBlockList	2500	1	645477	1	645477	-1	645476	2500	c	1171	646647	15.995
19	2.5	000_R01_VA_allProc	48	1	"<?xml version=""1.0""?>\n<Clock xmlns:dt=""urn:schemas-microsoft-com:datatypes""><Description dt:dt=""string"">E-Prime Primary Realtime Clock</Description><StartTime><Timestamp dt:dt=""int"">0</Timestamp><DateUtc dt:dt=""string"">2019-08-02T18:38:49Z</DateUtc></StartTime><FrequencyChanges><FrequencyChange><Frequency dt:dt=""r8"">3020419</Frequency><Timestamp dt:dt=""r8"">295534290659</Timestamp><Current dt:dt=""r8"">0</Current><DateUtc dt:dt=""string"">2019-08-02T18:38:49Z</DateUtc></FrequencyChange></FrequencyChanges></Clock>\n"	000_R01_VA_allProc-48-1	60.023	1.0.0.183	1	-817872492	Professional	2.0.10.356	2.0.10.356	08-02-2019	8/2/2019 6:38:49 PM	14:38:49	2.0.10.252	4	1	1	629483	7	629482	3999	-999999	804812	-3	789422	0	Run5Proc	4	1	4	RunList	1	LowLargeED	8000	0	651474	0	651474	0	651474	0	C5LowLargeEDBlockProc	n/a	n/a	n/a	n/a	n/a	n/a	n/a	n/a	n/a	n/a	n/a	n/a	1.0	1.0	1.0	Run5BlockList	6	n/a	n/a	n/a	n/a	n/a	n/a	n/a	n/a	n/a	n/a	n/a	n/a	n/a	n/a	n/a	n/a	n/a	n/a	n/a	n/a	n/a	n/a	n/a	n/a	n/a	n/a	n/a	n/a	n/a	n/a	n/a	n/a	n/a	n/a	n/a	n/a	n/a	n/a	n/a	n/a	n/a	n/a	6.0	1.0	6.0	n/a	n/a	n/a	n/a	n/a	n/a	n/a	n/a	n/a	n/a	n/a	n/a	n/a	n/a	n/a	n/a	n/a	n/a	n/a	n/a	n/a	n/a	n/a	n/a	n/a	n/a	n/a	n/a	n/a	n/a	n/a	n/a	n/a	n/a	n/a	n/a	n/a	n/a	n/a	n/a	n/a	n/a	n/a	n/a	n/a	C5_06.jpg	500	0	650974	-1	650974	0	TrialProc1	C5LowLargeEDBlockList	2500	0	648475	0	648475	-1	648475	2499	c	988	649463	18.994
30	2.5	000_R01_VA_allProc	48	1	"<?xml version=""1.0""?>\n<Clock xmlns:dt=""urn:schemas-microsoft-com:datatypes""><Description dt:dt=""string"">E-Prime Primary Realtime Clock</Description><StartTime><Timestamp dt:dt=""int"">0</Timestamp><DateUtc dt:dt=""string"">2019-08-02T18:38:49Z</DateUtc></StartTime><FrequencyChanges><FrequencyChange><Frequency dt:dt=""r8"">3020419</Frequency><Timestamp dt:dt=""r8"">295534290659</Timestamp><Current dt:dt=""r8"">0</Current><DateUtc dt:dt=""string"">2019-08-02T18:38:49Z</DateUtc></FrequencyChange></FrequencyChanges></Clock>\n"	000_R01_VA_allProc-48-1	60.023	1.0.0.183	1	-817872492	Professional	2.0.10.356	2.0.10.356	08-02-2019	8/2/2019 6:38:49 PM	14:38:49	2.0.10.252	4	1	1	629483	7	629482	3999	-999999	804812	-3	789422	0	Run5Proc	4	1	4	RunList	2	OfficeSmall	8000	1	677465	1	677465	-1	677464	0	F5OfficeSmallBlockProc	n/a	n/a	n/a	n/a	n/a	n/a	n/a	n/a	n/a	n/a	n/a	n/a	2.0	1.0	2.0	Run5BlockList	1	n/a	n/a	n/a	n/a	n/a	n/a	n/a	n/a	n/a	n/a	n/a	n/a	n/a	n/a	n/a	n/a	n/a	n/a	n/a	n/a	n/a	n/a	n/a	n/a	n/a	n/a	n/a	n/a	n/a	n/a	n/a	n/a	n/a	n/a	n/a	n/a	n/a	n/a	n/a	n/a	n/a	n/a	n/a	n/a	n/a	n/a	n/a	n/a	n/a	n/a	n/a	n/a	n/a	n/a	n/a	n/a	n/a	n/a	n/a	n/a	n/a	n/a	n/a	n/a	n/a	n/a	n/a	n/a	n/a	n/a	n/a	n/a	n/a	n/a	n/a	n/a	n/a	n/a	n/a	n/a	n/a	n/a	n/a	n/a	n/a	n/a	n/a	1.0	1.0	1.0	F5_01.jpg	500	0	661970	-1	661970	0	TrialProc1	F5OfficeSmallBlockList	2500	0	659471	0	659471	-3	659471	2499	c	944	660415	29.99
33	2.5	000_R01_VA_allProc	48	1	"<?xml version=""1.0""?>\n<Clock xmlns:dt=""urn:schemas-microsoft-com:datatypes""><Description dt:dt=""string"">E-Prime Primary Realtime Clock</Description><StartTime><Timestamp dt:dt=""int"">0</Timestamp><DateUtc dt:dt=""string"">2019-08-02T18:38:49Z</DateUtc></StartTime><FrequencyChanges><FrequencyChange><Frequency dt:dt=""r8"">3020419</Frequency><Timestamp dt:dt=""r8"">295534290659</Timestamp><Current dt:dt=""r8"">0</Current><DateUtc dt:dt=""string"">2019-08-02T18:38:49Z</DateUtc></FrequencyChange></FrequencyChanges></Clock>\n"	000_R01_VA_allProc-48-1	60.023	1.0.0.183	1	-817872492	Professional	2.0.10.356	2.0.10.356	08-02-2019	8/2/2019 6:38:49 PM	14:38:49	2.0.10.252	4	1	1	629483	7	629482	3999	-999999	804812	-3	789422	0	Run5Proc	4	1	4	RunList	2	OfficeSmall	8000	1	677465	1	677465	-1	677464	0	F5OfficeSmallBlockProc	n/a	n/a	n/a	n/a	n/a	n/a	n/a	n/a	n/a	n/a	n/a	n/a	2.0	1.0	2.0	Run5BlockList	2	n/a	n/a	n/a	n/a	n/a	n/a	n/a	n/a	n/a	n/a	n/a	n/a	n/a	n/a	n/a	n/a	n/a	n/a	n/a	n/a	n/a	n/a	n/a	n/a	n/a	n/a	n/a	n/a	n/a	n/a	n/a	n/a	n/a	n/a	n/a	n/a	n/a	n/a	n/a	n/a	n/a	n/a	n/a	n/a	n/a	n/a	n/a	n/a	n/a	n/a	n/a	n/a	n/a	n/a	n/a	n/a	n/a	n/a	n/a	n/a	n/a	n/a	n/a	n/a	n/a	n/a	n/a	n/a	n/a	n/a	n/a	n/a	n/a	n/a	n/a	n/a	n/a	n/a	n/a	n/a	n/a	n/a	n/a	n/a	n/a	n/a	n/a	2.0	1.0	2.0	F5_02.jpg	500	0	664969	-1	664969	0	TrialProc1	F5OfficeSmallBlockList	2500	0	662470	0	662470	0	662470	2499	c	1097	663567	32.989000000000004
36	2.5	000_R01_VA_allProc	48	1	"<?xml version=""1.0""?>\n<Clock xmlns:dt=""urn:schemas-microsoft-com:datatypes""><Description dt:dt=""string"">E-Prime Primary Realtime Clock</Description><StartTime><Timestamp dt:dt=""int"">0</Timestamp><DateUtc dt:dt=""string"">2019-08-02T18:38:49Z</DateUtc></StartTime><FrequencyChanges><FrequencyChange><Frequency dt:dt=""r8"">3020419</Frequency><Timestamp dt:dt=""r8"">295534290659</Timestamp><Current dt:dt=""r8"">0</Current><DateUtc dt:dt=""string"">2019-08-02T18:38:49Z</DateUtc></FrequencyChange></FrequencyChanges></Clock>\n"	000_R01_VA_allProc-48-1	60.023	1.0.0.183	1	-817872492	Professional	2.0.10.356	2.0.10.356	08-02-2019	8/2/2019 6:38:49 PM	14:38:49	2.0.10.252	4	1	1	629483	7	629482	3999	-999999	804812	-3	789422	0	Run5Proc	4	1	4	RunList	2	OfficeSmall	8000	1	677465	1	677465	-1	677464	0	F5OfficeSmallBlockProc	n/a	n/a	n/a	n/a	n/a	n/a	n/a	n/a	n/a	n/a	n/a	n/a	2.0	1.0	2.0	Run5BlockList	3	n/a	n/a	n/a	n/a	n/a	n/a	n/a	n/a	n/a	n/a	n/a	n/a	n/a	n/a	n/a	n/a	n/a	n/a	n/a	n/a	n/a	n/a	n/a	n/a	n/a	n/a	n/a	n/a	n/a	n/a	n/a	n/a	n/a	n/a	n/a	n/a	n/a	n/a	n/a	n/a	n/a	n/a	n/a	n/a	n/a	n/a	n/a	n/a	n/a	n/a	n/a	n/a	n/a	n/a	n/a	n/a	n/a	n/a	n/a	n/a	n/a	n/a	n/a	n/a	n/a	n/a	n/a	n/a	n/a	n/a	n/a	n/a	n/a	n/a	n/a	n/a	n/a	n/a	n/a	n/a	n/a	n/a	n/a	n/a	n/a	n/a	n/a	3.0	1.0	3.0	F5_03.jpg	500	0	667968	-1	667968	0	TrialProc1	F5OfficeSmallBlockList	2500	0	665469	0	665469	0	665469	2499	c	1106	666575	35.988
39	2.5	000_R01_VA_allProc	48	1	"<?xml version=""1.0""?>\n<Clock xmlns:dt=""urn:schemas-microsoft-com:datatypes""><Description dt:dt=""string"">E-Prime Primary Realtime Clock</Description><StartTime><Timestamp dt:dt=""int"">0</Timestamp><DateUtc dt:dt=""string"">2019-08-02T18:38:49Z</DateUtc></StartTime><FrequencyChanges><FrequencyChange><Frequency dt:dt=""r8"">3020419</Frequency><Timestamp dt:dt=""r8"">295534290659</Timestamp><Current dt:dt=""r8"">0</Current><DateUtc dt:dt=""string"">2019-08-02T18:38:49Z</DateUtc></FrequencyChange></FrequencyChanges></Clock>\n"	000_R01_VA_allProc-48-1	60.023	1.0.0.183	1	-817872492	Professional	2.0.10.356	2.0.10.356	08-02-2019	8/2/2019 6:38:49 PM	14:38:49	2.0.10.252	4	1	1	629483	7	629482	3999	-999999	804812	-3	789422	0	Run5Proc	4	1	4	RunList	2	OfficeSmall	8000	1	677465	1	677465	-1	677464	0	F5OfficeSmallBlockProc	n/a	n/a	n/a	n/a	n/a	n/a	n/a	n/a	n/a	n/a	n/a	n/a	2.0	1.0	2.0	Run5BlockList	4	n/a	n/a	n/a	n/a	n/a	n/a	n/a	n/a	n/a	n/a	n/a	n/a	n/a	n/a	n/a	n/a	n/a	n/a	n/a	n/a	n/a	n/a	n/a	n/a	n/a	n/a	n/a	n/a	n/a	n/a	n/a	n/a	n/a	n/a	n/a	n/a	n/a	n/a	n/a	n/a	n/a	n/a	n/a	n/a	n/a	n/a	n/a	n/a	n/a	n/a	n/a	n/a	n/a	n/a	n/a	n/a	n/a	n/a	n/a	n/a	n/a	n/a	n/a	n/a	n/a	n/a	n/a	n/a	n/a	n/a	n/a	n/a	n/a	n/a	n/a	n/a	n/a	n/a	n/a	n/a	n/a	n/a	n/a	n/a	n/a	n/a	n/a	4.0	1.0	4.0	F5_04.jpg	500	0	670967	-1	670967	0	TrialProc1	F5OfficeSmallBlockList	2500	0	668468	0	668468	0	668468	2499	c	907	669375	38.987
42	2.5	000_R01_VA_allProc	48	1	"<?xml version=""1.0""?>\n<Clock xmlns:dt=""urn:schemas-microsoft-com:datatypes""><Description dt:dt=""string"">E-Prime Primary Realtime Clock</Description><StartTime><Timestamp dt:dt=""int"">0</Timestamp><DateUtc dt:dt=""string"">2019-08-02T18:38:49Z</DateUtc></StartTime><FrequencyChanges><FrequencyChange><Frequency dt:dt=""r8"">3020419</Frequency><Timestamp dt:dt=""r8"">295534290659</Timestamp><Current dt:dt=""r8"">0</Current><DateUtc dt:dt=""string"">2019-08-02T18:38:49Z</DateUtc></FrequencyChange></FrequencyChanges></Clock>\n"	000_R01_VA_allProc-48-1	60.023	1.0.0.183	1	-817872492	Professional	2.0.10.356	2.0.10.356	08-02-2019	8/2/2019 6:38:49 PM	14:38:49	2.0.10.252	4	1	1	629483	7	629482	3999	-999999	804812	-3	789422	0	Run5Proc	4	1	4	RunList	2	OfficeSmall	8000	1	677465	1	677465	-1	677464	0	F5OfficeSmallBlockProc	n/a	n/a	n/a	n/a	n/a	n/a	n/a	n/a	n/a	n/a	n/a	n/a	2.0	1.0	2.0	Run5BlockList	5	n/a	n/a	n/a	n/a	n/a	n/a	n/a	n/a	n/a	n/a	n/a	n/a	n/a	n/a	n/a	n/a	n/a	n/a	n/a	n/a	n/a	n/a	n/a	n/a	n/a	n/a	n/a	n/a	n/a	n/a	n/a	n/a	n/a	n/a	n/a	n/a	n/a	n/a	n/a	n/a	n/a	n/a	n/a	n/a	n/a	n/a	n/a	n/a	n/a	n/a	n/a	n/a	n/a	n/a	n/a	n/a	n/a	n/a	n/a	n/a	n/a	n/a	n/a	n/a	n/a	n/a	n/a	n/a	n/a	n/a	n/a	n/a	n/a	n/a	n/a	n/a	n/a	n/a	n/a	n/a	n/a	n/a	n/a	n/a	n/a	n/a	n/a	5.0	1.0	5.0	F5_05.jpg	500	0	673966	-1	673966	0	TrialProc1	F5OfficeSmallBlockList	2500	0	671467	0	671467	0	671467	2499	c	1251	672718	41.986
45	2.5	000_R01_VA_allProc	48	1	"<?xml version=""1.0""?>\n<Clock xmlns:dt=""urn:schemas-microsoft-com:datatypes""><Description dt:dt=""string"">E-Prime Primary Realtime Clock</Description><StartTime><Timestamp dt:dt=""int"">0</Timestamp><DateUtc dt:dt=""string"">2019-08-02T18:38:49Z</DateUtc></StartTime><FrequencyChanges><FrequencyChange><Frequency dt:dt=""r8"">3020419</Frequency><Timestamp dt:dt=""r8"">295534290659</Timestamp><Current dt:dt=""r8"">0</Current><DateUtc dt:dt=""string"">2019-08-02T18:38:49Z</DateUtc></FrequencyChange></FrequencyChanges></Clock>\n"	000_R01_VA_allProc-48-1	60.023	1.0.0.183	1	-817872492	Professional	2.0.10.356	2.0.10.356	08-02-2019	8/2/2019 6:38:49 PM	14:38:49	2.0.10.252	4	1	1	629483	7	629482	3999	-999999	804812	-3	789422	0	Run5Proc	4	1	4	RunList	2	OfficeSmall	8000	1	677465	1	677465	-1	677464	0	F5OfficeSmallBlockProc	n/a	n/a	n/a	n/a	n/a	n/a	n/a	n/a	n/a	n/a	n/a	n/a	2.0	1.0	2.0	Run5BlockList	6	n/a	n/a	n/a	n/a	n/a	n/a	n/a	n/a	n/a	n/a	n/a	n/a	n/a	n/a	n/a	n/a	n/a	n/a	n/a	n/a	n/a	n/a	n/a	n/a	n/a	n/a	n/a	n/a	n/a	n/a	n/a	n/a	n/a	n/a	n/a	n/a	n/a	n/a	n/a	n/a	n/a	n/a	n/a	n/a	n/a	n/a	n/a	n/a	n/a	n/a	n/a	n/a	n/a	n/a	n/a	n/a	n/a	n/a	n/a	n/a	n/a	n/a	n/a	n/a	n/a	n/a	n/a	n/a	n/a	n/a	n/a	n/a	n/a	n/a	n/a	n/a	n/a	n/a	n/a	n/a	n/a	n/a	n/a	n/a	n/a	n/a	n/a	6.0	1.0	6.0	F5_06.jpg	500	0	676965	-1	676965	0	TrialProc1	F5OfficeSmallBlockList	2500	0	674466	0	674466	0	674466	2499	c	932	675398	44.985
56	2.5	000_R01_VA_allProc	48	1	"<?xml version=""1.0""?>\n<Clock xmlns:dt=""urn:schemas-microsoft-com:datatypes""><Description dt:dt=""string"">E-Prime Primary Realtime Clock</Description><StartTime><Timestamp dt:dt=""int"">0</Timestamp><DateUtc dt:dt=""string"">2019-08-02T18:38:49Z</DateUtc></StartTime><FrequencyChanges><FrequencyChange><Frequency dt:dt=""r8"">3020419</Frequency><Timestamp dt:dt=""r8"">295534290659</Timestamp><Current dt:dt=""r8"">0</Current><DateUtc dt:dt=""string"">2019-08-02T18:38:49Z</DateUtc></FrequencyChange></FrequencyChanges></Clock>\n"	000_R01_VA_allProc-48-1	60.023	1.0.0.183	1	-817872492	Professional	2.0.10.356	2.0.10.356	08-02-2019	8/2/2019 6:38:49 PM	14:38:49	2.0.10.252	4	1	1	629483	7	629482	3999	-999999	804812	-3	789422	0	Run5Proc	4	1	4	RunList	3	HighSmallED	8000	0	703455	0	703455	0	703455	0	B5HighSmallEDBlockProc	n/a	n/a	n/a	n/a	n/a	n/a	n/a	n/a	n/a	n/a	n/a	n/a	3.0	1.0	3.0	Run5BlockList	1	n/a	n/a	n/a	n/a	n/a	n/a	n/a	n/a	n/a	n/a	n/a	n/a	n/a	n/a	n/a	n/a	n/a	n/a	n/a	n/a	n/a	n/a	n/a	n/a	n/a	n/a	n/a	1.0	1.0	1.0	n/a	n/a	n/a	n/a	n/a	n/a	n/a	n/a	n/a	n/a	n/a	n/a	n/a	n/a	n/a	n/a	n/a	n/a	n/a	n/a	n/a	n/a	n/a	n/a	n/a	n/a	n/a	n/a	n/a	n/a	n/a	n/a	n/a	n/a	n/a	n/a	n/a	n/a	n/a	n/a	n/a	n/a	n/a	n/a	n/a	n/a	n/a	n/a	n/a	n/a	n/a	n/a	n/a	n/a	n/a	n/a	n/a	n/a	n/a	n/a	B5_01.jpg	500	0	687961	0	687961	0	TrialProc1	B5HighSmallEDBlockList	2500	1	685462	1	685462	-3	685461	2500	c	777	686238	55.98
59	2.5	000_R01_VA_allProc	48	1	"<?xml version=""1.0""?>\n<Clock xmlns:dt=""urn:schemas-microsoft-com:datatypes""><Description dt:dt=""string"">E-Prime Primary Realtime Clock</Description><StartTime><Timestamp dt:dt=""int"">0</Timestamp><DateUtc dt:dt=""string"">2019-08-02T18:38:49Z</DateUtc></StartTime><FrequencyChanges><FrequencyChange><Frequency dt:dt=""r8"">3020419</Frequency><Timestamp dt:dt=""r8"">295534290659</Timestamp><Current dt:dt=""r8"">0</Current><DateUtc dt:dt=""string"">2019-08-02T18:38:49Z</DateUtc></FrequencyChange></FrequencyChanges></Clock>\n"	000_R01_VA_allProc-48-1	60.023	1.0.0.183	1	-817872492	Professional	2.0.10.356	2.0.10.356	08-02-2019	8/2/2019 6:38:49 PM	14:38:49	2.0.10.252	4	1	1	629483	7	629482	3999	-999999	804812	-3	789422	0	Run5Proc	4	1	4	RunList	3	HighSmallED	8000	0	703455	0	703455	0	703455	0	B5HighSmallEDBlockProc	n/a	n/a	n/a	n/a	n/a	n/a	n/a	n/a	n/a	n/a	n/a	n/a	3.0	1.0	3.0	Run5BlockList	2	n/a	n/a	n/a	n/a	n/a	n/a	n/a	n/a	n/a	n/a	n/a	n/a	n/a	n/a	n/a	n/a	n/a	n/a	n/a	n/a	n/a	n/a	n/a	n/a	n/a	n/a	n/a	2.0	1.0	2.0	n/a	n/a	n/a	n/a	n/a	n/a	n/a	n/a	n/a	n/a	n/a	n/a	n/a	n/a	n/a	n/a	n/a	n/a	n/a	n/a	n/a	n/a	n/a	n/a	n/a	n/a	n/a	n/a	n/a	n/a	n/a	n/a	n/a	n/a	n/a	n/a	n/a	n/a	n/a	n/a	n/a	n/a	n/a	n/a	n/a	n/a	n/a	n/a	n/a	n/a	n/a	n/a	n/a	n/a	n/a	n/a	n/a	n/a	n/a	n/a	B5_02.jpg	500	0	690959	-1	690959	0	TrialProc1	B5HighSmallEDBlockList	2500	0	688460	0	688460	-1	688460	2499	c	802	689262	58.979
62	2.5	000_R01_VA_allProc	48	1	"<?xml version=""1.0""?>\n<Clock xmlns:dt=""urn:schemas-microsoft-com:datatypes""><Description dt:dt=""string"">E-Prime Primary Realtime Clock</Description><StartTime><Timestamp dt:dt=""int"">0</Timestamp><DateUtc dt:dt=""string"">2019-08-02T18:38:49Z</DateUtc></StartTime><FrequencyChanges><FrequencyChange><Frequency dt:dt=""r8"">3020419</Frequency><Timestamp dt:dt=""r8"">295534290659</Timestamp><Current dt:dt=""r8"">0</Current><DateUtc dt:dt=""string"">2019-08-02T18:38:49Z</DateUtc></FrequencyChange></FrequencyChanges></Clock>\n"	000_R01_VA_allProc-48-1	60.023	1.0.0.183	1	-817872492	Professional	2.0.10.356	2.0.10.356	08-02-2019	8/2/2019 6:38:49 PM	14:38:49	2.0.10.252	4	1	1	629483	7	629482	3999	-999999	804812	-3	789422	0	Run5Proc	4	1	4	RunList	3	HighSmallED	8000	0	703455	0	703455	0	703455	0	B5HighSmallEDBlockProc	n/a	n/a	n/a	n/a	n/a	n/a	n/a	n/a	n/a	n/a	n/a	n/a	3.0	1.0	3.0	Run5BlockList	3	n/a	n/a	n/a	n/a	n/a	n/a	n/a	n/a	n/a	n/a	n/a	n/a	n/a	n/a	n/a	n/a	n/a	n/a	n/a	n/a	n/a	n/a	n/a	n/a	n/a	n/a	n/a	3.0	1.0	3.0	n/a	n/a	n/a	n/a	n/a	n/a	n/a	n/a	n/a	n/a	n/a	n/a	n/a	n/a	n/a	n/a	n/a	n/a	n/a	n/a	n/a	n/a	n/a	n/a	n/a	n/a	n/a	n/a	n/a	n/a	n/a	n/a	n/a	n/a	n/a	n/a	n/a	n/a	n/a	n/a	n/a	n/a	n/a	n/a	n/a	n/a	n/a	n/a	n/a	n/a	n/a	n/a	n/a	n/a	n/a	n/a	n/a	n/a	n/a	n/a	B5_03.jpg	500	0	693958	-1	693958	0	TrialProc1	B5HighSmallEDBlockList	2500	0	691459	0	691459	0	691459	2499	c	947	692406	61.978
65	2.5	000_R01_VA_allProc	48	1	"<?xml version=""1.0""?>\n<Clock xmlns:dt=""urn:schemas-microsoft-com:datatypes""><Description dt:dt=""string"">E-Prime Primary Realtime Clock</Description><StartTime><Timestamp dt:dt=""int"">0</Timestamp><DateUtc dt:dt=""string"">2019-08-02T18:38:49Z</DateUtc></StartTime><FrequencyChanges><FrequencyChange><Frequency dt:dt=""r8"">3020419</Frequency><Timestamp dt:dt=""r8"">295534290659</Timestamp><Current dt:dt=""r8"">0</Current><DateUtc dt:dt=""string"">2019-08-02T18:38:49Z</DateUtc></FrequencyChange></FrequencyChanges></Clock>\n"	000_R01_VA_allProc-48-1	60.023	1.0.0.183	1	-817872492	Professional	2.0.10.356	2.0.10.356	08-02-2019	8/2/2019 6:38:49 PM	14:38:49	2.0.10.252	4	1	1	629483	7	629482	3999	-999999	804812	-3	789422	0	Run5Proc	4	1	4	RunList	3	HighSmallED	8000	0	703455	0	703455	0	703455	0	B5HighSmallEDBlockProc	n/a	n/a	n/a	n/a	n/a	n/a	n/a	n/a	n/a	n/a	n/a	n/a	3.0	1.0	3.0	Run5BlockList	4	n/a	n/a	n/a	n/a	n/a	n/a	n/a	n/a	n/a	n/a	n/a	n/a	n/a	n/a	n/a	n/a	n/a	n/a	n/a	n/a	n/a	n/a	n/a	n/a	n/a	n/a	n/a	4.0	1.0	4.0	n/a	n/a	n/a	n/a	n/a	n/a	n/a	n/a	n/a	n/a	n/a	n/a	n/a	n/a	n/a	n/a	n/a	n/a	n/a	n/a	n/a	n/a	n/a	n/a	n/a	n/a	n/a	n/a	n/a	n/a	n/a	n/a	n/a	n/a	n/a	n/a	n/a	n/a	n/a	n/a	n/a	n/a	n/a	n/a	n/a	n/a	n/a	n/a	n/a	n/a	n/a	n/a	n/a	n/a	n/a	n/a	n/a	n/a	n/a	n/a	B5_04.jpg	500	0	696957	-1	696957	0	TrialProc1	B5HighSmallEDBlockList	2500	0	694458	0	694458	0	694458	2499	c	804	695262	64.977
68	2.5	000_R01_VA_allProc	48	1	"<?xml version=""1.0""?>\n<Clock xmlns:dt=""urn:schemas-microsoft-com:datatypes""><Description dt:dt=""string"">E-Prime Primary Realtime Clock</Description><StartTime><Timestamp dt:dt=""int"">0</Timestamp><DateUtc dt:dt=""string"">2019-08-02T18:38:49Z</DateUtc></StartTime><FrequencyChanges><FrequencyChange><Frequency dt:dt=""r8"">3020419</Frequency><Timestamp dt:dt=""r8"">295534290659</Timestamp><Current dt:dt=""r8"">0</Current><DateUtc dt:dt=""string"">2019-08-02T18:38:49Z</DateUtc></FrequencyChange></FrequencyChanges></Clock>\n"	000_R01_VA_allProc-48-1	60.023	1.0.0.183	1	-817872492	Professional	2.0.10.356	2.0.10.356	08-02-2019	8/2/2019 6:38:49 PM	14:38:49	2.0.10.252	4	1	1	629483	7	629482	3999	-999999	804812	-3	789422	0	Run5Proc	4	1	4	RunList	3	HighSmallED	8000	0	703455	0	703455	0	703455	0	B5HighSmallEDBlockProc	n/a	n/a	n/a	n/a	n/a	n/a	n/a	n/a	n/a	n/a	n/a	n/a	3.0	1.0	3.0	Run5BlockList	5	n/a	n/a	n/a	n/a	n/a	n/a	n/a	n/a	n/a	n/a	n/a	n/a	n/a	n/a	n/a	n/a	n/a	n/a	n/a	n/a	n/a	n/a	n/a	n/a	n/a	n/a	n/a	5.0	1.0	5.0	n/a	n/a	n/a	n/a	n/a	n/a	n/a	n/a	n/a	n/a	n/a	n/a	n/a	n/a	n/a	n/a	n/a	n/a	n/a	n/a	n/a	n/a	n/a	n/a	n/a	n/a	n/a	n/a	n/a	n/a	n/a	n/a	n/a	n/a	n/a	n/a	n/a	n/a	n/a	n/a	n/a	n/a	n/a	n/a	n/a	n/a	n/a	n/a	n/a	n/a	n/a	n/a	n/a	n/a	n/a	n/a	n/a	n/a	n/a	n/a	B5_05.jpg	500	0	699956	-1	699956	0	TrialProc1	B5HighSmallEDBlockList	2500	0	697457	0	697457	0	697457	2499	c	869	698326	67.976
71	2.5	000_R01_VA_allProc	48	1	"<?xml version=""1.0""?>\n<Clock xmlns:dt=""urn:schemas-microsoft-com:datatypes""><Description dt:dt=""string"">E-Prime Primary Realtime Clock</Description><StartTime><Timestamp dt:dt=""int"">0</Timestamp><DateUtc dt:dt=""string"">2019-08-02T18:38:49Z</DateUtc></StartTime><FrequencyChanges><FrequencyChange><Frequency dt:dt=""r8"">3020419</Frequency><Timestamp dt:dt=""r8"">295534290659</Timestamp><Current dt:dt=""r8"">0</Current><DateUtc dt:dt=""string"">2019-08-02T18:38:49Z</DateUtc></FrequencyChange></FrequencyChanges></Clock>\n"	000_R01_VA_allProc-48-1	60.023	1.0.0.183	1	-817872492	Professional	2.0.10.356	2.0.10.356	08-02-2019	8/2/2019 6:38:49 PM	14:38:49	2.0.10.252	4	1	1	629483	7	629482	3999	-999999	804812	-3	789422	0	Run5Proc	4	1	4	RunList	3	HighSmallED	8000	0	703455	0	703455	0	703455	0	B5HighSmallEDBlockProc	n/a	n/a	n/a	n/a	n/a	n/a	n/a	n/a	n/a	n/a	n/a	n/a	3.0	1.0	3.0	Run5BlockList	6	n/a	n/a	n/a	n/a	n/a	n/a	n/a	n/a	n/a	n/a	n/a	n/a	n/a	n/a	n/a	n/a	n/a	n/a	n/a	n/a	n/a	n/a	n/a	n/a	n/a	n/a	n/a	6.0	1.0	6.0	n/a	n/a	n/a	n/a	n/a	n/a	n/a	n/a	n/a	n/a	n/a	n/a	n/a	n/a	n/a	n/a	n/a	n/a	n/a	n/a	n/a	n/a	n/a	n/a	n/a	n/a	n/a	n/a	n/a	n/a	n/a	n/a	n/a	n/a	n/a	n/a	n/a	n/a	n/a	n/a	n/a	n/a	n/a	n/a	n/a	n/a	n/a	n/a	n/a	n/a	n/a	n/a	n/a	n/a	n/a	n/a	n/a	n/a	n/a	n/a	B5_06.jpg	500	0	702955	-1	702955	0	TrialProc1	B5HighSmallEDBlockList	2500	0	700456	0	700456	0	700456	2499	c	798	701254	70.975
82	2.5	000_R01_VA_allProc	48	1	"<?xml version=""1.0""?>\n<Clock xmlns:dt=""urn:schemas-microsoft-com:datatypes""><Description dt:dt=""string"">E-Prime Primary Realtime Clock</Description><StartTime><Timestamp dt:dt=""int"">0</Timestamp><DateUtc dt:dt=""string"">2019-08-02T18:38:49Z</DateUtc></StartTime><FrequencyChanges><FrequencyChange><Frequency dt:dt=""r8"">3020419</Frequency><Timestamp dt:dt=""r8"">295534290659</Timestamp><Current dt:dt=""r8"">0</Current><DateUtc dt:dt=""string"">2019-08-02T18:38:49Z</DateUtc></FrequencyChange></FrequencyChanges></Clock>\n"	000_R01_VA_allProc-48-1	60.023	1.0.0.183	1	-817872492	Professional	2.0.10.356	2.0.10.356	08-02-2019	8/2/2019 6:38:49 PM	14:38:49	2.0.10.252	4	1	1	629483	7	629482	3999	-999999	804812	-3	789422	0	Run5Proc	4	1	4	RunList	4	OfficeLarge	8000	0	729445	0	729445	0	729445	0	E5OfficeLargeBlockProc	n/a	n/a	n/a	n/a	n/a	n/a	n/a	n/a	n/a	n/a	n/a	n/a	4.0	1.0	4.0	Run5BlockList	1	n/a	n/a	n/a	n/a	n/a	n/a	n/a	n/a	n/a	n/a	n/a	n/a	n/a	n/a	n/a	n/a	n/a	n/a	n/a	n/a	n/a	n/a	n/a	n/a	n/a	n/a	n/a	n/a	n/a	n/a	n/a	n/a	n/a	n/a	n/a	n/a	n/a	n/a	n/a	n/a	n/a	n/a	n/a	n/a	n/a	n/a	n/a	n/a	n/a	n/a	n/a	n/a	n/a	n/a	n/a	n/a	n/a	n/a	n/a	n/a	n/a	n/a	n/a	n/a	n/a	n/a	n/a	n/a	n/a	n/a	n/a	n/a	1.0	1.0	1.0	n/a	n/a	n/a	n/a	n/a	n/a	n/a	n/a	n/a	n/a	n/a	n/a	n/a	n/a	n/a	E5_01.jpg	500	0	713951	-1	713951	0	TrialProc1	E5OfficeLargeBlockList	2500	0	711452	0	711452	-3	711452	2499	c	818	712270	81.971
85	2.5	000_R01_VA_allProc	48	1	"<?xml version=""1.0""?>\n<Clock xmlns:dt=""urn:schemas-microsoft-com:datatypes""><Description dt:dt=""string"">E-Prime Primary Realtime Clock</Description><StartTime><Timestamp dt:dt=""int"">0</Timestamp><DateUtc dt:dt=""string"">2019-08-02T18:38:49Z</DateUtc></StartTime><FrequencyChanges><FrequencyChange><Frequency dt:dt=""r8"">3020419</Frequency><Timestamp dt:dt=""r8"">295534290659</Timestamp><Current dt:dt=""r8"">0</Current><DateUtc dt:dt=""string"">2019-08-02T18:38:49Z</DateUtc></FrequencyChange></FrequencyChanges></Clock>\n"	000_R01_VA_allProc-48-1	60.023	1.0.0.183	1	-817872492	Professional	2.0.10.356	2.0.10.356	08-02-2019	8/2/2019 6:38:49 PM	14:38:49	2.0.10.252	4	1	1	629483	7	629482	3999	-999999	804812	-3	789422	0	Run5Proc	4	1	4	RunList	4	OfficeLarge	8000	0	729445	0	729445	0	729445	0	E5OfficeLargeBlockProc	n/a	n/a	n/a	n/a	n/a	n/a	n/a	n/a	n/a	n/a	n/a	n/a	4.0	1.0	4.0	Run5BlockList	2	n/a	n/a	n/a	n/a	n/a	n/a	n/a	n/a	n/a	n/a	n/a	n/a	n/a	n/a	n/a	n/a	n/a	n/a	n/a	n/a	n/a	n/a	n/a	n/a	n/a	n/a	n/a	n/a	n/a	n/a	n/a	n/a	n/a	n/a	n/a	n/a	n/a	n/a	n/a	n/a	n/a	n/a	n/a	n/a	n/a	n/a	n/a	n/a	n/a	n/a	n/a	n/a	n/a	n/a	n/a	n/a	n/a	n/a	n/a	n/a	n/a	n/a	n/a	n/a	n/a	n/a	n/a	n/a	n/a	n/a	n/a	n/a	2.0	1.0	2.0	n/a	n/a	n/a	n/a	n/a	n/a	n/a	n/a	n/a	n/a	n/a	n/a	n/a	n/a	n/a	E5_02.jpg	500	0	716950	-1	716950	0	TrialProc1	E5OfficeLargeBlockList	2500	0	714451	0	714451	0	714451	2499	c	691	715142	84.97
88	2.5	000_R01_VA_allProc	48	1	"<?xml version=""1.0""?>\n<Clock xmlns:dt=""urn:schemas-microsoft-com:datatypes""><Description dt:dt=""string"">E-Prime Primary Realtime Clock</Description><StartTime><Timestamp dt:dt=""int"">0</Timestamp><DateUtc dt:dt=""string"">2019-08-02T18:38:49Z</DateUtc></StartTime><FrequencyChanges><FrequencyChange><Frequency dt:dt=""r8"">3020419</Frequency><Timestamp dt:dt=""r8"">295534290659</Timestamp><Current dt:dt=""r8"">0</Current><DateUtc dt:dt=""string"">2019-08-02T18:38:49Z</DateUtc></FrequencyChange></FrequencyChanges></Clock>\n"	000_R01_VA_allProc-48-1	60.023	1.0.0.183	1	-817872492	Professional	2.0.10.356	2.0.10.356	08-02-2019	8/2/2019 6:38:49 PM	14:38:49	2.0.10.252	4	1	1	629483	7	629482	3999	-999999	804812	-3	789422	0	Run5Proc	4	1	4	RunList	4	OfficeLarge	8000	0	729445	0	729445	0	729445	0	E5OfficeLargeBlockProc	n/a	n/a	n/a	n/a	n/a	n/a	n/a	n/a	n/a	n/a	n/a	n/a	4.0	1.0	4.0	Run5BlockList	3	n/a	n/a	n/a	n/a	n/a	n/a	n/a	n/a	n/a	n/a	n/a	n/a	n/a	n/a	n/a	n/a	n/a	n/a	n/a	n/a	n/a	n/a	n/a	n/a	n/a	n/a	n/a	n/a	n/a	n/a	n/a	n/a	n/a	n/a	n/a	n/a	n/a	n/a	n/a	n/a	n/a	n/a	n/a	n/a	n/a	n/a	n/a	n/a	n/a	n/a	n/a	n/a	n/a	n/a	n/a	n/a	n/a	n/a	n/a	n/a	n/a	n/a	n/a	n/a	n/a	n/a	n/a	n/a	n/a	n/a	n/a	n/a	3.0	1.0	3.0	n/a	n/a	n/a	n/a	n/a	n/a	n/a	n/a	n/a	n/a	n/a	n/a	n/a	n/a	n/a	E5_03.jpg	500	1	719949	-1	719948	0	TrialProc1	E5OfficeLargeBlockList	2500	1	717450	1	717450	-1	717449	2499	c	860	718309	87.968
91	2.5	000_R01_VA_allProc	48	1	"<?xml version=""1.0""?>\n<Clock xmlns:dt=""urn:schemas-microsoft-com:datatypes""><Description dt:dt=""string"">E-Prime Primary Realtime Clock</Description><StartTime><Timestamp dt:dt=""int"">0</Timestamp><DateUtc dt:dt=""string"">2019-08-02T18:38:49Z</DateUtc></StartTime><FrequencyChanges><FrequencyChange><Frequency dt:dt=""r8"">3020419</Frequency><Timestamp dt:dt=""r8"">295534290659</Timestamp><Current dt:dt=""r8"">0</Current><DateUtc dt:dt=""string"">2019-08-02T18:38:49Z</DateUtc></FrequencyChange></FrequencyChanges></Clock>\n"	000_R01_VA_allProc-48-1	60.023	1.0.0.183	1	-817872492	Professional	2.0.10.356	2.0.10.356	08-02-2019	8/2/2019 6:38:49 PM	14:38:49	2.0.10.252	4	1	1	629483	7	629482	3999	-999999	804812	-3	789422	0	Run5Proc	4	1	4	RunList	4	OfficeLarge	8000	0	729445	0	729445	0	729445	0	E5OfficeLargeBlockProc	n/a	n/a	n/a	n/a	n/a	n/a	n/a	n/a	n/a	n/a	n/a	n/a	4.0	1.0	4.0	Run5BlockList	4	n/a	n/a	n/a	n/a	n/a	n/a	n/a	n/a	n/a	n/a	n/a	n/a	n/a	n/a	n/a	n/a	n/a	n/a	n/a	n/a	n/a	n/a	n/a	n/a	n/a	n/a	n/a	n/a	n/a	n/a	n/a	n/a	n/a	n/a	n/a	n/a	n/a	n/a	n/a	n/a	n/a	n/a	n/a	n/a	n/a	n/a	n/a	n/a	n/a	n/a	n/a	n/a	n/a	n/a	n/a	n/a	n/a	n/a	n/a	n/a	n/a	n/a	n/a	n/a	n/a	n/a	n/a	n/a	n/a	n/a	n/a	n/a	4.0	1.0	4.0	n/a	n/a	n/a	n/a	n/a	n/a	n/a	n/a	n/a	n/a	n/a	n/a	n/a	n/a	n/a	E5_04.jpg	500	0	722947	-1	722947	0	TrialProc1	E5OfficeLargeBlockList	2500	0	720448	0	720448	0	720448	2499	c	757	721205	90.967
94	2.5	000_R01_VA_allProc	48	1	"<?xml version=""1.0""?>\n<Clock xmlns:dt=""urn:schemas-microsoft-com:datatypes""><Description dt:dt=""string"">E-Prime Primary Realtime Clock</Description><StartTime><Timestamp dt:dt=""int"">0</Timestamp><DateUtc dt:dt=""string"">2019-08-02T18:38:49Z</DateUtc></StartTime><FrequencyChanges><FrequencyChange><Frequency dt:dt=""r8"">3020419</Frequency><Timestamp dt:dt=""r8"">295534290659</Timestamp><Current dt:dt=""r8"">0</Current><DateUtc dt:dt=""string"">2019-08-02T18:38:49Z</DateUtc></FrequencyChange></FrequencyChanges></Clock>\n"	000_R01_VA_allProc-48-1	60.023	1.0.0.183	1	-817872492	Professional	2.0.10.356	2.0.10.356	08-02-2019	8/2/2019 6:38:49 PM	14:38:49	2.0.10.252	4	1	1	629483	7	629482	3999	-999999	804812	-3	789422	0	Run5Proc	4	1	4	RunList	4	OfficeLarge	8000	0	729445	0	729445	0	729445	0	E5OfficeLargeBlockProc	n/a	n/a	n/a	n/a	n/a	n/a	n/a	n/a	n/a	n/a	n/a	n/a	4.0	1.0	4.0	Run5BlockList	5	n/a	n/a	n/a	n/a	n/a	n/a	n/a	n/a	n/a	n/a	n/a	n/a	n/a	n/a	n/a	n/a	n/a	n/a	n/a	n/a	n/a	n/a	n/a	n/a	n/a	n/a	n/a	n/a	n/a	n/a	n/a	n/a	n/a	n/a	n/a	n/a	n/a	n/a	n/a	n/a	n/a	n/a	n/a	n/a	n/a	n/a	n/a	n/a	n/a	n/a	n/a	n/a	n/a	n/a	n/a	n/a	n/a	n/a	n/a	n/a	n/a	n/a	n/a	n/a	n/a	n/a	n/a	n/a	n/a	n/a	n/a	n/a	5.0	1.0	5.0	n/a	n/a	n/a	n/a	n/a	n/a	n/a	n/a	n/a	n/a	n/a	n/a	n/a	n/a	n/a	E5_05.jpg	500	0	725946	-1	725946	0	TrialProc1	E5OfficeLargeBlockList	2500	0	723447	0	723447	0	723447	2499	c	822	724269	93.966
97	2.5	000_R01_VA_allProc	48	1	"<?xml version=""1.0""?>\n<Clock xmlns:dt=""urn:schemas-microsoft-com:datatypes""><Description dt:dt=""string"">E-Prime Primary Realtime Clock</Description><StartTime><Timestamp dt:dt=""int"">0</Timestamp><DateUtc dt:dt=""string"">2019-08-02T18:38:49Z</DateUtc></StartTime><FrequencyChanges><FrequencyChange><Frequency dt:dt=""r8"">3020419</Frequency><Timestamp dt:dt=""r8"">295534290659</Timestamp><Current dt:dt=""r8"">0</Current><DateUtc dt:dt=""string"">2019-08-02T18:38:49Z</DateUtc></FrequencyChange></FrequencyChanges></Clock>\n"	000_R01_VA_allProc-48-1	60.023	1.0.0.183	1	-817872492	Professional	2.0.10.356	2.0.10.356	08-02-2019	8/2/2019 6:38:49 PM	14:38:49	2.0.10.252	4	1	1	629483	7	629482	3999	-999999	804812	-3	789422	0	Run5Proc	4	1	4	RunList	4	OfficeLarge	8000	0	729445	0	729445	0	729445	0	E5OfficeLargeBlockProc	n/a	n/a	n/a	n/a	n/a	n/a	n/a	n/a	n/a	n/a	n/a	n/a	4.0	1.0	4.0	Run5BlockList	6	n/a	n/a	n/a	n/a	n/a	n/a	n/a	n/a	n/a	n/a	n/a	n/a	n/a	n/a	n/a	n/a	n/a	n/a	n/a	n/a	n/a	n/a	n/a	n/a	n/a	n/a	n/a	n/a	n/a	n/a	n/a	n/a	n/a	n/a	n/a	n/a	n/a	n/a	n/a	n/a	n/a	n/a	n/a	n/a	n/a	n/a	n/a	n/a	n/a	n/a	n/a	n/a	n/a	n/a	n/a	n/a	n/a	n/a	n/a	n/a	n/a	n/a	n/a	n/a	n/a	n/a	n/a	n/a	n/a	n/a	n/a	n/a	6.0	1.0	6.0	n/a	n/a	n/a	n/a	n/a	n/a	n/a	n/a	n/a	n/a	n/a	n/a	n/a	n/a	n/a	E5_06.jpg	500	0	728945	-1	728945	0	TrialProc1	E5OfficeLargeBlockList	2500	0	726446	0	726446	0	726446	2499	c	951	727397	96.965
108	2.5	000_R01_VA_allProc	48	1	"<?xml version=""1.0""?>\n<Clock xmlns:dt=""urn:schemas-microsoft-com:datatypes""><Description dt:dt=""string"">E-Prime Primary Realtime Clock</Description><StartTime><Timestamp dt:dt=""int"">0</Timestamp><DateUtc dt:dt=""string"">2019-08-02T18:38:49Z</DateUtc></StartTime><FrequencyChanges><FrequencyChange><Frequency dt:dt=""r8"">3020419</Frequency><Timestamp dt:dt=""r8"">295534290659</Timestamp><Current dt:dt=""r8"">0</Current><DateUtc dt:dt=""string"">2019-08-02T18:38:49Z</DateUtc></FrequencyChange></FrequencyChanges></Clock>\n"	000_R01_VA_allProc-48-1	60.023	1.0.0.183	1	-817872492	Professional	2.0.10.356	2.0.10.356	08-02-2019	8/2/2019 6:38:49 PM	14:38:49	2.0.10.252	4	1	1	629483	7	629482	3999	-999999	804812	-3	789422	0	Run5Proc	4	1	4	RunList	5	HighLargeED	8000	0	755435	0	755435	0	755435	0	A5HighLargeEDBlockProc	n/a	n/a	n/a	n/a	n/a	n/a	n/a	n/a	n/a	n/a	n/a	n/a	5.0	1.0	5.0	Run5BlockList	1	n/a	n/a	n/a	n/a	n/a	n/a	n/a	n/a	n/a	n/a	n/a	n/a	1.0	1.0	1.0	n/a	n/a	n/a	n/a	n/a	n/a	n/a	n/a	n/a	n/a	n/a	n/a	n/a	n/a	n/a	n/a	n/a	n/a	n/a	n/a	n/a	n/a	n/a	n/a	n/a	n/a	n/a	n/a	n/a	n/a	n/a	n/a	n/a	n/a	n/a	n/a	n/a	n/a	n/a	n/a	n/a	n/a	n/a	n/a	n/a	n/a	n/a	n/a	n/a	n/a	n/a	n/a	n/a	n/a	n/a	n/a	n/a	n/a	n/a	n/a	n/a	n/a	n/a	n/a	n/a	n/a	n/a	n/a	n/a	n/a	n/a	n/a	n/a	n/a	n/a	A5_01.jpg	500	0	739941	-1	739941	0	TrialProc1	A5HighLargeEDBlockList	2500	0	737442	0	737442	-3	737442	2499	c	1283	738725	107.961
111	2.5	000_R01_VA_allProc	48	1	"<?xml version=""1.0""?>\n<Clock xmlns:dt=""urn:schemas-microsoft-com:datatypes""><Description dt:dt=""string"">E-Prime Primary Realtime Clock</Description><StartTime><Timestamp dt:dt=""int"">0</Timestamp><DateUtc dt:dt=""string"">2019-08-02T18:38:49Z</DateUtc></StartTime><FrequencyChanges><FrequencyChange><Frequency dt:dt=""r8"">3020419</Frequency><Timestamp dt:dt=""r8"">295534290659</Timestamp><Current dt:dt=""r8"">0</Current><DateUtc dt:dt=""string"">2019-08-02T18:38:49Z</DateUtc></FrequencyChange></FrequencyChanges></Clock>\n"	000_R01_VA_allProc-48-1	60.023	1.0.0.183	1	-817872492	Professional	2.0.10.356	2.0.10.356	08-02-2019	8/2/2019 6:38:49 PM	14:38:49	2.0.10.252	4	1	1	629483	7	629482	3999	-999999	804812	-3	789422	0	Run5Proc	4	1	4	RunList	5	HighLargeED	8000	0	755435	0	755435	0	755435	0	A5HighLargeEDBlockProc	n/a	n/a	n/a	n/a	n/a	n/a	n/a	n/a	n/a	n/a	n/a	n/a	5.0	1.0	5.0	Run5BlockList	2	n/a	n/a	n/a	n/a	n/a	n/a	n/a	n/a	n/a	n/a	n/a	n/a	2.0	1.0	2.0	n/a	n/a	n/a	n/a	n/a	n/a	n/a	n/a	n/a	n/a	n/a	n/a	n/a	n/a	n/a	n/a	n/a	n/a	n/a	n/a	n/a	n/a	n/a	n/a	n/a	n/a	n/a	n/a	n/a	n/a	n/a	n/a	n/a	n/a	n/a	n/a	n/a	n/a	n/a	n/a	n/a	n/a	n/a	n/a	n/a	n/a	n/a	n/a	n/a	n/a	n/a	n/a	n/a	n/a	n/a	n/a	n/a	n/a	n/a	n/a	n/a	n/a	n/a	n/a	n/a	n/a	n/a	n/a	n/a	n/a	n/a	n/a	n/a	n/a	n/a	A5_02.jpg	500	0	742940	-1	742940	0	TrialProc1	A5HighLargeEDBlockList	2500	0	740441	0	740441	0	740441	2499	c	860	741301	110.96
114	2.5	000_R01_VA_allProc	48	1	"<?xml version=""1.0""?>\n<Clock xmlns:dt=""urn:schemas-microsoft-com:datatypes""><Description dt:dt=""string"">E-Prime Primary Realtime Clock</Description><StartTime><Timestamp dt:dt=""int"">0</Timestamp><DateUtc dt:dt=""string"">2019-08-02T18:38:49Z</DateUtc></StartTime><FrequencyChanges><FrequencyChange><Frequency dt:dt=""r8"">3020419</Frequency><Timestamp dt:dt=""r8"">295534290659</Timestamp><Current dt:dt=""r8"">0</Current><DateUtc dt:dt=""string"">2019-08-02T18:38:49Z</DateUtc></FrequencyChange></FrequencyChanges></Clock>\n"	000_R01_VA_allProc-48-1	60.023	1.0.0.183	1	-817872492	Professional	2.0.10.356	2.0.10.356	08-02-2019	8/2/2019 6:38:49 PM	14:38:49	2.0.10.252	4	1	1	629483	7	629482	3999	-999999	804812	-3	789422	0	Run5Proc	4	1	4	RunList	5	HighLargeED	8000	0	755435	0	755435	0	755435	0	A5HighLargeEDBlockProc	n/a	n/a	n/a	n/a	n/a	n/a	n/a	n/a	n/a	n/a	n/a	n/a	5.0	1.0	5.0	Run5BlockList	3	n/a	n/a	n/a	n/a	n/a	n/a	n/a	n/a	n/a	n/a	n/a	n/a	3.0	1.0	3.0	n/a	n/a	n/a	n/a	n/a	n/a	n/a	n/a	n/a	n/a	n/a	n/a	n/a	n/a	n/a	n/a	n/a	n/a	n/a	n/a	n/a	n/a	n/a	n/a	n/a	n/a	n/a	n/a	n/a	n/a	n/a	n/a	n/a	n/a	n/a	n/a	n/a	n/a	n/a	n/a	n/a	n/a	n/a	n/a	n/a	n/a	n/a	n/a	n/a	n/a	n/a	n/a	n/a	n/a	n/a	n/a	n/a	n/a	n/a	n/a	n/a	n/a	n/a	n/a	n/a	n/a	n/a	n/a	n/a	n/a	n/a	n/a	n/a	n/a	n/a	A5_03.jpg	500	0	745939	-1	745939	0	TrialProc1	A5HighLargeEDBlockList	2500	0	743440	0	743440	0	743440	2499	c	925	744365	113.959
117	2.5	000_R01_VA_allProc	48	1	"<?xml version=""1.0""?>\n<Clock xmlns:dt=""urn:schemas-microsoft-com:datatypes""><Description dt:dt=""string"">E-Prime Primary Realtime Clock</Description><StartTime><Timestamp dt:dt=""int"">0</Timestamp><DateUtc dt:dt=""string"">2019-08-02T18:38:49Z</DateUtc></StartTime><FrequencyChanges><FrequencyChange><Frequency dt:dt=""r8"">3020419</Frequency><Timestamp dt:dt=""r8"">295534290659</Timestamp><Current dt:dt=""r8"">0</Current><DateUtc dt:dt=""string"">2019-08-02T18:38:49Z</DateUtc></FrequencyChange></FrequencyChanges></Clock>\n"	000_R01_VA_allProc-48-1	60.023	1.0.0.183	1	-817872492	Professional	2.0.10.356	2.0.10.356	08-02-2019	8/2/2019 6:38:49 PM	14:38:49	2.0.10.252	4	1	1	629483	7	629482	3999	-999999	804812	-3	789422	0	Run5Proc	4	1	4	RunList	5	HighLargeED	8000	0	755435	0	755435	0	755435	0	A5HighLargeEDBlockProc	n/a	n/a	n/a	n/a	n/a	n/a	n/a	n/a	n/a	n/a	n/a	n/a	5.0	1.0	5.0	Run5BlockList	4	n/a	n/a	n/a	n/a	n/a	n/a	n/a	n/a	n/a	n/a	n/a	n/a	4.0	1.0	4.0	n/a	n/a	n/a	n/a	n/a	n/a	n/a	n/a	n/a	n/a	n/a	n/a	n/a	n/a	n/a	n/a	n/a	n/a	n/a	n/a	n/a	n/a	n/a	n/a	n/a	n/a	n/a	n/a	n/a	n/a	n/a	n/a	n/a	n/a	n/a	n/a	n/a	n/a	n/a	n/a	n/a	n/a	n/a	n/a	n/a	n/a	n/a	n/a	n/a	n/a	n/a	n/a	n/a	n/a	n/a	n/a	n/a	n/a	n/a	n/a	n/a	n/a	n/a	n/a	n/a	n/a	n/a	n/a	n/a	n/a	n/a	n/a	n/a	n/a	n/a	A5_04.jpg	500	0	748938	-1	748938	0	TrialProc1	A5HighLargeEDBlockList	2500	0	746439	0	746439	0	746439	2499	c	622	747061	116.958
120	2.5	000_R01_VA_allProc	48	1	"<?xml version=""1.0""?>\n<Clock xmlns:dt=""urn:schemas-microsoft-com:datatypes""><Description dt:dt=""string"">E-Prime Primary Realtime Clock</Description><StartTime><Timestamp dt:dt=""int"">0</Timestamp><DateUtc dt:dt=""string"">2019-08-02T18:38:49Z</DateUtc></StartTime><FrequencyChanges><FrequencyChange><Frequency dt:dt=""r8"">3020419</Frequency><Timestamp dt:dt=""r8"">295534290659</Timestamp><Current dt:dt=""r8"">0</Current><DateUtc dt:dt=""string"">2019-08-02T18:38:49Z</DateUtc></FrequencyChange></FrequencyChanges></Clock>\n"	000_R01_VA_allProc-48-1	60.023	1.0.0.183	1	-817872492	Professional	2.0.10.356	2.0.10.356	08-02-2019	8/2/2019 6:38:49 PM	14:38:49	2.0.10.252	4	1	1	629483	7	629482	3999	-999999	804812	-3	789422	0	Run5Proc	4	1	4	RunList	5	HighLargeED	8000	0	755435	0	755435	0	755435	0	A5HighLargeEDBlockProc	n/a	n/a	n/a	n/a	n/a	n/a	n/a	n/a	n/a	n/a	n/a	n/a	5.0	1.0	5.0	Run5BlockList	5	n/a	n/a	n/a	n/a	n/a	n/a	n/a	n/a	n/a	n/a	n/a	n/a	5.0	1.0	5.0	n/a	n/a	n/a	n/a	n/a	n/a	n/a	n/a	n/a	n/a	n/a	n/a	n/a	n/a	n/a	n/a	n/a	n/a	n/a	n/a	n/a	n/a	n/a	n/a	n/a	n/a	n/a	n/a	n/a	n/a	n/a	n/a	n/a	n/a	n/a	n/a	n/a	n/a	n/a	n/a	n/a	n/a	n/a	n/a	n/a	n/a	n/a	n/a	n/a	n/a	n/a	n/a	n/a	n/a	n/a	n/a	n/a	n/a	n/a	n/a	n/a	n/a	n/a	n/a	n/a	n/a	n/a	n/a	n/a	n/a	n/a	n/a	n/a	n/a	n/a	A5_05.jpg	500	1	751937	-1	751936	0	TrialProc1	A5HighLargeEDBlockList	2500	0	749437	0	749437	-1	749437	2499	c	1176	750613	119.956
123	2.5	000_R01_VA_allProc	48	1	"<?xml version=""1.0""?>\n<Clock xmlns:dt=""urn:schemas-microsoft-com:datatypes""><Description dt:dt=""string"">E-Prime Primary Realtime Clock</Description><StartTime><Timestamp dt:dt=""int"">0</Timestamp><DateUtc dt:dt=""string"">2019-08-02T18:38:49Z</DateUtc></StartTime><FrequencyChanges><FrequencyChange><Frequency dt:dt=""r8"">3020419</Frequency><Timestamp dt:dt=""r8"">295534290659</Timestamp><Current dt:dt=""r8"">0</Current><DateUtc dt:dt=""string"">2019-08-02T18:38:49Z</DateUtc></FrequencyChange></FrequencyChanges></Clock>\n"	000_R01_VA_allProc-48-1	60.023	1.0.0.183	1	-817872492	Professional	2.0.10.356	2.0.10.356	08-02-2019	8/2/2019 6:38:49 PM	14:38:49	2.0.10.252	4	1	1	629483	7	629482	3999	-999999	804812	-3	789422	0	Run5Proc	4	1	4	RunList	5	HighLargeED	8000	0	755435	0	755435	0	755435	0	A5HighLargeEDBlockProc	n/a	n/a	n/a	n/a	n/a	n/a	n/a	n/a	n/a	n/a	n/a	n/a	5.0	1.0	5.0	Run5BlockList	6	n/a	n/a	n/a	n/a	n/a	n/a	n/a	n/a	n/a	n/a	n/a	n/a	6.0	1.0	6.0	n/a	n/a	n/a	n/a	n/a	n/a	n/a	n/a	n/a	n/a	n/a	n/a	n/a	n/a	n/a	n/a	n/a	n/a	n/a	n/a	n/a	n/a	n/a	n/a	n/a	n/a	n/a	n/a	n/a	n/a	n/a	n/a	n/a	n/a	n/a	n/a	n/a	n/a	n/a	n/a	n/a	n/a	n/a	n/a	n/a	n/a	n/a	n/a	n/a	n/a	n/a	n/a	n/a	n/a	n/a	n/a	n/a	n/a	n/a	n/a	n/a	n/a	n/a	n/a	n/a	n/a	n/a	n/a	n/a	n/a	n/a	n/a	n/a	n/a	n/a	A5_06.jpg	500	0	754935	-1	754935	0	TrialProc1	A5HighLargeEDBlockList	2500	0	752436	0	752436	0	752436	2499	c	1417	753853	122.955
134	2.5	000_R01_VA_allProc	48	1	"<?xml version=""1.0""?>\n<Clock xmlns:dt=""urn:schemas-microsoft-com:datatypes""><Description dt:dt=""string"">E-Prime Primary Realtime Clock</Description><StartTime><Timestamp dt:dt=""int"">0</Timestamp><DateUtc dt:dt=""string"">2019-08-02T18:38:49Z</DateUtc></StartTime><FrequencyChanges><FrequencyChange><Frequency dt:dt=""r8"">3020419</Frequency><Timestamp dt:dt=""r8"">295534290659</Timestamp><Current dt:dt=""r8"">0</Current><DateUtc dt:dt=""string"">2019-08-02T18:38:49Z</DateUtc></FrequencyChange></FrequencyChanges></Clock>\n"	000_R01_VA_allProc-48-1	60.023	1.0.0.183	1	-817872492	Professional	2.0.10.356	2.0.10.356	08-02-2019	8/2/2019 6:38:49 PM	14:38:49	2.0.10.252	4	1	1	629483	7	629482	3999	-999999	804812	-3	789422	0	Run5Proc	4	1	4	RunList	6	LowSmallED	8000	0	781425	0	781425	-1	781425	0	D5LowSmallEDBlockProc	n/a	n/a	n/a	n/a	n/a	n/a	n/a	n/a	n/a	n/a	n/a	n/a	6.0	1.0	6.0	Run5BlockList	1	n/a	n/a	n/a	n/a	n/a	n/a	n/a	n/a	n/a	n/a	n/a	n/a	n/a	n/a	n/a	n/a	n/a	n/a	n/a	n/a	n/a	n/a	n/a	n/a	n/a	n/a	n/a	n/a	n/a	n/a	n/a	n/a	n/a	n/a	n/a	n/a	n/a	n/a	n/a	n/a	n/a	n/a	n/a	n/a	n/a	n/a	n/a	n/a	n/a	n/a	n/a	n/a	n/a	n/a	n/a	n/a	n/a	1.0	1.0	1.0	n/a	n/a	n/a	n/a	n/a	n/a	n/a	n/a	n/a	n/a	n/a	n/a	n/a	n/a	n/a	n/a	n/a	n/a	n/a	n/a	n/a	n/a	n/a	n/a	n/a	n/a	n/a	n/a	n/a	n/a	D5_01.jpg	500	0	765931	-1	765931	0	TrialProc1	D5LowSmallEDBlockList	2500	0	763432	0	763432	-3	763432	2499	c	1972	765404	133.951
137	2.5	000_R01_VA_allProc	48	1	"<?xml version=""1.0""?>\n<Clock xmlns:dt=""urn:schemas-microsoft-com:datatypes""><Description dt:dt=""string"">E-Prime Primary Realtime Clock</Description><StartTime><Timestamp dt:dt=""int"">0</Timestamp><DateUtc dt:dt=""string"">2019-08-02T18:38:49Z</DateUtc></StartTime><FrequencyChanges><FrequencyChange><Frequency dt:dt=""r8"">3020419</Frequency><Timestamp dt:dt=""r8"">295534290659</Timestamp><Current dt:dt=""r8"">0</Current><DateUtc dt:dt=""string"">2019-08-02T18:38:49Z</DateUtc></FrequencyChange></FrequencyChanges></Clock>\n"	000_R01_VA_allProc-48-1	60.023	1.0.0.183	1	-817872492	Professional	2.0.10.356	2.0.10.356	08-02-2019	8/2/2019 6:38:49 PM	14:38:49	2.0.10.252	4	1	1	629483	7	629482	3999	-999999	804812	-3	789422	0	Run5Proc	4	1	4	RunList	6	LowSmallED	8000	0	781425	0	781425	-1	781425	0	D5LowSmallEDBlockProc	n/a	n/a	n/a	n/a	n/a	n/a	n/a	n/a	n/a	n/a	n/a	n/a	6.0	1.0	6.0	Run5BlockList	2	n/a	n/a	n/a	n/a	n/a	n/a	n/a	n/a	n/a	n/a	n/a	n/a	n/a	n/a	n/a	n/a	n/a	n/a	n/a	n/a	n/a	n/a	n/a	n/a	n/a	n/a	n/a	n/a	n/a	n/a	n/a	n/a	n/a	n/a	n/a	n/a	n/a	n/a	n/a	n/a	n/a	n/a	n/a	n/a	n/a	n/a	n/a	n/a	n/a	n/a	n/a	n/a	n/a	n/a	n/a	n/a	n/a	2.0	1.0	2.0	n/a	n/a	n/a	n/a	n/a	n/a	n/a	n/a	n/a	n/a	n/a	n/a	n/a	n/a	n/a	n/a	n/a	n/a	n/a	n/a	n/a	n/a	n/a	n/a	n/a	n/a	n/a	n/a	n/a	n/a	D5_02.jpg	500	0	768930	-1	768930	0	TrialProc1	D5LowSmallEDBlockList	2500	0	766431	0	766431	0	766431	2499	c	1013	767444	136.95
140	2.5	000_R01_VA_allProc	48	1	"<?xml version=""1.0""?>\n<Clock xmlns:dt=""urn:schemas-microsoft-com:datatypes""><Description dt:dt=""string"">E-Prime Primary Realtime Clock</Description><StartTime><Timestamp dt:dt=""int"">0</Timestamp><DateUtc dt:dt=""string"">2019-08-02T18:38:49Z</DateUtc></StartTime><FrequencyChanges><FrequencyChange><Frequency dt:dt=""r8"">3020419</Frequency><Timestamp dt:dt=""r8"">295534290659</Timestamp><Current dt:dt=""r8"">0</Current><DateUtc dt:dt=""string"">2019-08-02T18:38:49Z</DateUtc></FrequencyChange></FrequencyChanges></Clock>\n"	000_R01_VA_allProc-48-1	60.023	1.0.0.183	1	-817872492	Professional	2.0.10.356	2.0.10.356	08-02-2019	8/2/2019 6:38:49 PM	14:38:49	2.0.10.252	4	1	1	629483	7	629482	3999	-999999	804812	-3	789422	0	Run5Proc	4	1	4	RunList	6	LowSmallED	8000	0	781425	0	781425	-1	781425	0	D5LowSmallEDBlockProc	n/a	n/a	n/a	n/a	n/a	n/a	n/a	n/a	n/a	n/a	n/a	n/a	6.0	1.0	6.0	Run5BlockList	3	n/a	n/a	n/a	n/a	n/a	n/a	n/a	n/a	n/a	n/a	n/a	n/a	n/a	n/a	n/a	n/a	n/a	n/a	n/a	n/a	n/a	n/a	n/a	n/a	n/a	n/a	n/a	n/a	n/a	n/a	n/a	n/a	n/a	n/a	n/a	n/a	n/a	n/a	n/a	n/a	n/a	n/a	n/a	n/a	n/a	n/a	n/a	n/a	n/a	n/a	n/a	n/a	n/a	n/a	n/a	n/a	n/a	3.0	1.0	3.0	n/a	n/a	n/a	n/a	n/a	n/a	n/a	n/a	n/a	n/a	n/a	n/a	n/a	n/a	n/a	n/a	n/a	n/a	n/a	n/a	n/a	n/a	n/a	n/a	n/a	n/a	n/a	n/a	n/a	n/a	D5_03.jpg	500	0	771929	-1	771929	0	TrialProc1	D5LowSmallEDBlockList	2500	0	769430	0	769430	0	769430	2499	c	998	770428	139.949
143	2.5	000_R01_VA_allProc	48	1	"<?xml version=""1.0""?>\n<Clock xmlns:dt=""urn:schemas-microsoft-com:datatypes""><Description dt:dt=""string"">E-Prime Primary Realtime Clock</Description><StartTime><Timestamp dt:dt=""int"">0</Timestamp><DateUtc dt:dt=""string"">2019-08-02T18:38:49Z</DateUtc></StartTime><FrequencyChanges><FrequencyChange><Frequency dt:dt=""r8"">3020419</Frequency><Timestamp dt:dt=""r8"">295534290659</Timestamp><Current dt:dt=""r8"">0</Current><DateUtc dt:dt=""string"">2019-08-02T18:38:49Z</DateUtc></FrequencyChange></FrequencyChanges></Clock>\n"	000_R01_VA_allProc-48-1	60.023	1.0.0.183	1	-817872492	Professional	2.0.10.356	2.0.10.356	08-02-2019	8/2/2019 6:38:49 PM	14:38:49	2.0.10.252	4	1	1	629483	7	629482	3999	-999999	804812	-3	789422	0	Run5Proc	4	1	4	RunList	6	LowSmallED	8000	0	781425	0	781425	-1	781425	0	D5LowSmallEDBlockProc	n/a	n/a	n/a	n/a	n/a	n/a	n/a	n/a	n/a	n/a	n/a	n/a	6.0	1.0	6.0	Run5BlockList	4	n/a	n/a	n/a	n/a	n/a	n/a	n/a	n/a	n/a	n/a	n/a	n/a	n/a	n/a	n/a	n/a	n/a	n/a	n/a	n/a	n/a	n/a	n/a	n/a	n/a	n/a	n/a	n/a	n/a	n/a	n/a	n/a	n/a	n/a	n/a	n/a	n/a	n/a	n/a	n/a	n/a	n/a	n/a	n/a	n/a	n/a	n/a	n/a	n/a	n/a	n/a	n/a	n/a	n/a	n/a	n/a	n/a	4.0	1.0	4.0	n/a	n/a	n/a	n/a	n/a	n/a	n/a	n/a	n/a	n/a	n/a	n/a	n/a	n/a	n/a	n/a	n/a	n/a	n/a	n/a	n/a	n/a	n/a	n/a	n/a	n/a	n/a	n/a	n/a	n/a	D5_04.jpg	500	0	774928	-1	774928	0	TrialProc1	D5LowSmallEDBlockList	2500	0	772429	0	772429	0	772429	2499	d	1127	773556	142.948
146	2.5	000_R01_VA_allProc	48	1	"<?xml version=""1.0""?>\n<Clock xmlns:dt=""urn:schemas-microsoft-com:datatypes""><Description dt:dt=""string"">E-Prime Primary Realtime Clock</Description><StartTime><Timestamp dt:dt=""int"">0</Timestamp><DateUtc dt:dt=""string"">2019-08-02T18:38:49Z</DateUtc></StartTime><FrequencyChanges><FrequencyChange><Frequency dt:dt=""r8"">3020419</Frequency><Timestamp dt:dt=""r8"">295534290659</Timestamp><Current dt:dt=""r8"">0</Current><DateUtc dt:dt=""string"">2019-08-02T18:38:49Z</DateUtc></FrequencyChange></FrequencyChanges></Clock>\n"	000_R01_VA_allProc-48-1	60.023	1.0.0.183	1	-817872492	Professional	2.0.10.356	2.0.10.356	08-02-2019	8/2/2019 6:38:49 PM	14:38:49	2.0.10.252	4	1	1	629483	7	629482	3999	-999999	804812	-3	789422	0	Run5Proc	4	1	4	RunList	6	LowSmallED	8000	0	781425	0	781425	-1	781425	0	D5LowSmallEDBlockProc	n/a	n/a	n/a	n/a	n/a	n/a	n/a	n/a	n/a	n/a	n/a	n/a	6.0	1.0	6.0	Run5BlockList	5	n/a	n/a	n/a	n/a	n/a	n/a	n/a	n/a	n/a	n/a	n/a	n/a	n/a	n/a	n/a	n/a	n/a	n/a	n/a	n/a	n/a	n/a	n/a	n/a	n/a	n/a	n/a	n/a	n/a	n/a	n/a	n/a	n/a	n/a	n/a	n/a	n/a	n/a	n/a	n/a	n/a	n/a	n/a	n/a	n/a	n/a	n/a	n/a	n/a	n/a	n/a	n/a	n/a	n/a	n/a	n/a	n/a	5.0	1.0	5.0	n/a	n/a	n/a	n/a	n/a	n/a	n/a	n/a	n/a	n/a	n/a	n/a	n/a	n/a	n/a	n/a	n/a	n/a	n/a	n/a	n/a	n/a	n/a	n/a	n/a	n/a	n/a	n/a	n/a	n/a	D5_05.jpg	500	0	777927	-1	777927	0	TrialProc1	D5LowSmallEDBlockList	2500	0	775428	0	775428	0	775428	2499	c	928	776356	145.947
149	2.5	000_R01_VA_allProc	48	1	"<?xml version=""1.0""?>\n<Clock xmlns:dt=""urn:schemas-microsoft-com:datatypes""><Description dt:dt=""string"">E-Prime Primary Realtime Clock</Description><StartTime><Timestamp dt:dt=""int"">0</Timestamp><DateUtc dt:dt=""string"">2019-08-02T18:38:49Z</DateUtc></StartTime><FrequencyChanges><FrequencyChange><Frequency dt:dt=""r8"">3020419</Frequency><Timestamp dt:dt=""r8"">295534290659</Timestamp><Current dt:dt=""r8"">0</Current><DateUtc dt:dt=""string"">2019-08-02T18:38:49Z</DateUtc></FrequencyChange></FrequencyChanges></Clock>\n"	000_R01_VA_allProc-48-1	60.023	1.0.0.183	1	-817872492	Professional	2.0.10.356	2.0.10.356	08-02-2019	8/2/2019 6:38:49 PM	14:38:49	2.0.10.252	4	1	1	629483	7	629482	3999	-999999	804812	-3	789422	0	Run5Proc	4	1	4	RunList	6	LowSmallED	8000	0	781425	0	781425	-1	781425	0	D5LowSmallEDBlockProc	n/a	n/a	n/a	n/a	n/a	n/a	n/a	n/a	n/a	n/a	n/a	n/a	6.0	1.0	6.0	Run5BlockList	6	n/a	n/a	n/a	n/a	n/a	n/a	n/a	n/a	n/a	n/a	n/a	n/a	n/a	n/a	n/a	n/a	n/a	n/a	n/a	n/a	n/a	n/a	n/a	n/a	n/a	n/a	n/a	n/a	n/a	n/a	n/a	n/a	n/a	n/a	n/a	n/a	n/a	n/a	n/a	n/a	n/a	n/a	n/a	n/a	n/a	n/a	n/a	n/a	n/a	n/a	n/a	n/a	n/a	n/a	n/a	n/a	n/a	6.0	1.0	6.0	n/a	n/a	n/a	n/a	n/a	n/a	n/a	n/a	n/a	n/a	n/a	n/a	n/a	n/a	n/a	n/a	n/a	n/a	n/a	n/a	n/a	n/a	n/a	n/a	n/a	n/a	n/a	n/a	n/a	n/a	D5_06.jpg	500	0	780926	-1	780926	0	TrialProc1	D5LowSmallEDBlockList	2500	0	778427	0	778427	0	778427	2499	d	1289	779716	148.946
