onset	duration	experiment_name	sub	ses	clock_information	datafile_basename	display_refreshrate	experiment_version	group	randomseed	runtime_capabilities	runtime_version	runtimeversionexpected	session_date	session_start_date_time_utc	session_time	studio_version	block	fixation2trs_durationerror	fixation2trs_offsetdelay	fixation2trs_offsettime	fixation2trs_onsetdelay	fixation2trs_onsettime	fixation2trs_onsettoonsettime	goodwork_durationerror	goodwork_finishtime	goodwork_onsetdelay	goodwork_onsettime	goodwork_onsettoonsettime	procedure_block	runlist	runlist_cycle	runlist_sample	running_block	trial	condition	interblockinterval_duration	interblockinterval_durationerror	interblockinterval_finishtime	interblockinterval_offsetdelay	interblockinterval_offsettime	interblockinterval_onsetdelay	interblockinterval_onsettime	interblockinterval_onsettoonsettime	procedure_trial	run1blocklist	run1blocklist_cycle	run1blocklist_sample	run3blocklist	run3blocklist_cycle	run3blocklist_sample	run4blocklist	run4blocklist_cycle	run4blocklist_sample	run5blocklist	run5blocklist_cycle	run5blocklist_sample	running_trial	subtrial	a1highlargeedblocklist	a1highlargeedblocklist_cycle	a1highlargeedblocklist_sample	a3highlargeedblocklist	a3highlargeedblocklist_cycle	a3highlargeedblocklist_sample	a4highlargeedblocklist	a4highlargeedblocklist_cycle	a4highlargeedblocklist_sample	a5highlargeedblocklist	a5highlargeedblocklist_cycle	a5highlargeedblocklist_sample	b1highsmalledblocklist	b1highsmalledblocklist_cycle	b1highsmalledblocklist_sample	b3highsmalledblocklist	b3highsmalledblocklist_cycle	b3highsmalledblocklist_sample	b4highsmalledblocklist	b4highsmalledblocklist_cycle	b4highsmalledblocklist_sample	b5highsmalledblocklist	b5highsmalledblocklist_cycle	b5highsmalledblocklist_sample	c1lowlargeedblocklist	c1lowlargeedblocklist_cycle	c1lowlargeedblocklist_sample	c3lowlargeedblocklist	c3lowlargeedblocklist_cycle	c3lowlargeedblocklist_sample	c4lowlargeedblocklist	c4lowlargeedblocklist_cycle	c4lowlargeedblocklist_sample	c5lowlargeedblocklist	c5lowlargeedblocklist_cycle	c5lowlargeedblocklist_sample	d1lowsmalledblocklist	d1lowsmalledblocklist_cycle	d1lowsmalledblocklist_sample	d3lowsmalledblocklist	d3lowsmalledblocklist_cycle	d3lowsmalledblocklist_sample	d4lowsmalledblocklist	d4lowsmalledblocklist_cycle	d4lowsmalledblocklist_sample	d5lowsmalledblocklist	d5lowsmalledblocklist_cycle	d5lowsmalledblocklist_sample	e1officelargeblocklist	e1officelargeblocklist_cycle	e1officelargeblocklist_sample	e3officelargeblocklist	e3officelargeblocklist_cycle	e3officelargeblocklist_sample	e4officelargeblocklist	e4officelargeblocklist_cycle	e4officelargeblocklist_sample	e5officelargeblocklist	e5officelargeblocklist_cycle	e5officelargeblocklist_sample	f1officesmallblocklist	f1officesmallblocklist_cycle	f1officesmallblocklist_sample	f3officesmallblocklist	f3officesmallblocklist_cycle	f3officesmallblocklist_sample	f4officesmallblocklist	f4officesmallblocklist_cycle	f4officesmallblocklist_sample	f5officesmallblocklist	f5officesmallblocklist_cycle	f5officesmallblocklist_sample	filename	isi_duration	isi_durationerror	isi_finishtime	isi_onsetdelay	isi_onsettime	isi_onsettoonsettime	procedure_subtrial	running_subtrial	stimslide_duration	stimslide_durationerror	stimslide_finishtime	stimslide_offsetdelay	stimslide_offsettime	stimslide_onsetdelay	stimslide_onsettime	stimslide_onsettoonsettime	stimslide_resp	stimslide_rt	stimslide_rttime	onset_unrounded
4	2.5	000_R01_VA_allProc	130	1	"<?xml version=""1.0""?>\n<Clock xmlns:dt=""urn:schemas-microsoft-com:datatypes""><Description dt:dt=""string"">E-Prime Primary Realtime Clock</Description><StartTime><Timestamp dt:dt=""int"">0</Timestamp><DateUtc dt:dt=""string"">2022-05-11T20:31:51Z</DateUtc></StartTime><FrequencyChanges><FrequencyChange><Frequency dt:dt=""r8"">3020371</Frequency><Timestamp dt:dt=""r8"">598641600637</Timestamp><Current dt:dt=""r8"">0</Current><DateUtc dt:dt=""string"">2022-05-11T20:31:51Z</DateUtc></FrequencyChange></FrequencyChanges></Clock>\n"	000_R01_VA_allProc-130-1	60.001	1.0.0.229	1	1641759171	Professional	2.0.10.356	2.0.10.356	05-11-2022	5/11/2022 8:31:51 PM	16:31:51	2.0.10.252	3	0.0	0.0	524902.0	22.0	524902.0	4000.0	-999999.0	756934.0	0.0	684900.0	0.0	Run4Proc	3	1	3	RunList	1.0	OfficeSmall	8000.0	0.0	546901.0	0.0	546901.0	0.0	546901.0	0.0	F4OfficeSmallBlockProc	n/a	n/a	n/a	n/a	n/a	n/a	1.0	1.0	1.0	n/a	n/a	n/a	Run4BlockList	1.0	n/a	n/a	n/a	n/a	n/a	n/a	n/a	n/a	n/a	n/a	n/a	n/a	n/a	n/a	n/a	n/a	n/a	n/a	n/a	n/a	n/a	n/a	n/a	n/a	n/a	n/a	n/a	n/a	n/a	n/a	n/a	n/a	n/a	n/a	n/a	n/a	n/a	n/a	n/a	n/a	n/a	n/a	n/a	n/a	n/a	n/a	n/a	n/a	n/a	n/a	n/a	n/a	n/a	n/a	n/a	n/a	n/a	n/a	n/a	n/a	n/a	n/a	n/a	n/a	n/a	n/a	1.0	1.0	1.0	n/a	n/a	n/a	F4_01.jpg	500.0	1.0	531402.0	-1.0	531401.0	0.0	TrialProc1	F4OfficeSmallBlockList	2500.0	0.0	528902.0	0.0	528902.0	0.0	528902.0	2499.0	n/a	0.0	0.0	4.0
7	2.5	000_R01_VA_allProc	130	1	"<?xml version=""1.0""?>\n<Clock xmlns:dt=""urn:schemas-microsoft-com:datatypes""><Description dt:dt=""string"">E-Prime Primary Realtime Clock</Description><StartTime><Timestamp dt:dt=""int"">0</Timestamp><DateUtc dt:dt=""string"">2022-05-11T20:31:51Z</DateUtc></StartTime><FrequencyChanges><FrequencyChange><Frequency dt:dt=""r8"">3020371</Frequency><Timestamp dt:dt=""r8"">598641600637</Timestamp><Current dt:dt=""r8"">0</Current><DateUtc dt:dt=""string"">2022-05-11T20:31:51Z</DateUtc></FrequencyChange></FrequencyChanges></Clock>\n"	000_R01_VA_allProc-130-1	60.001	1.0.0.229	1	1641759171	Professional	2.0.10.356	2.0.10.356	05-11-2022	5/11/2022 8:31:51 PM	16:31:51	2.0.10.252	3	0.0	0.0	524902.0	22.0	524902.0	4000.0	-999999.0	756934.0	0.0	684900.0	0.0	Run4Proc	3	1	3	RunList	1.0	OfficeSmall	8000.0	0.0	546901.0	0.0	546901.0	0.0	546901.0	0.0	F4OfficeSmallBlockProc	n/a	n/a	n/a	n/a	n/a	n/a	1.0	1.0	1.0	n/a	n/a	n/a	Run4BlockList	2.0	n/a	n/a	n/a	n/a	n/a	n/a	n/a	n/a	n/a	n/a	n/a	n/a	n/a	n/a	n/a	n/a	n/a	n/a	n/a	n/a	n/a	n/a	n/a	n/a	n/a	n/a	n/a	n/a	n/a	n/a	n/a	n/a	n/a	n/a	n/a	n/a	n/a	n/a	n/a	n/a	n/a	n/a	n/a	n/a	n/a	n/a	n/a	n/a	n/a	n/a	n/a	n/a	n/a	n/a	n/a	n/a	n/a	n/a	n/a	n/a	n/a	n/a	n/a	n/a	n/a	n/a	2.0	1.0	2.0	n/a	n/a	n/a	F4_02.jpg	500.0	1.0	534402.0	0.0	534401.0	0.0	TrialProc1	F4OfficeSmallBlockList	2500.0	1.0	531902.0	1.0	531902.0	0.0	531901.0	2500.0	d	436.0	532337.0	6.9990000000000006
10	2.5	000_R01_VA_allProc	130	1	"<?xml version=""1.0""?>\n<Clock xmlns:dt=""urn:schemas-microsoft-com:datatypes""><Description dt:dt=""string"">E-Prime Primary Realtime Clock</Description><StartTime><Timestamp dt:dt=""int"">0</Timestamp><DateUtc dt:dt=""string"">2022-05-11T20:31:51Z</DateUtc></StartTime><FrequencyChanges><FrequencyChange><Frequency dt:dt=""r8"">3020371</Frequency><Timestamp dt:dt=""r8"">598641600637</Timestamp><Current dt:dt=""r8"">0</Current><DateUtc dt:dt=""string"">2022-05-11T20:31:51Z</DateUtc></FrequencyChange></FrequencyChanges></Clock>\n"	000_R01_VA_allProc-130-1	60.001	1.0.0.229	1	1641759171	Professional	2.0.10.356	2.0.10.356	05-11-2022	5/11/2022 8:31:51 PM	16:31:51	2.0.10.252	3	0.0	0.0	524902.0	22.0	524902.0	4000.0	-999999.0	756934.0	0.0	684900.0	0.0	Run4Proc	3	1	3	RunList	1.0	OfficeSmall	8000.0	0.0	546901.0	0.0	546901.0	0.0	546901.0	0.0	F4OfficeSmallBlockProc	n/a	n/a	n/a	n/a	n/a	n/a	1.0	1.0	1.0	n/a	n/a	n/a	Run4BlockList	3.0	n/a	n/a	n/a	n/a	n/a	n/a	n/a	n/a	n/a	n/a	n/a	n/a	n/a	n/a	n/a	n/a	n/a	n/a	n/a	n/a	n/a	n/a	n/a	n/a	n/a	n/a	n/a	n/a	n/a	n/a	n/a	n/a	n/a	n/a	n/a	n/a	n/a	n/a	n/a	n/a	n/a	n/a	n/a	n/a	n/a	n/a	n/a	n/a	n/a	n/a	n/a	n/a	n/a	n/a	n/a	n/a	n/a	n/a	n/a	n/a	n/a	n/a	n/a	n/a	n/a	n/a	3.0	1.0	3.0	n/a	n/a	n/a	F4_03.jpg	500.0	1.0	537402.0	0.0	537401.0	0.0	TrialProc1	F4OfficeSmallBlockList	2500.0	1.0	534902.0	1.0	534902.0	0.0	534901.0	2500.0	n/a	0.0	0.0	9.998999999999999
13	2.5	000_R01_VA_allProc	130	1	"<?xml version=""1.0""?>\n<Clock xmlns:dt=""urn:schemas-microsoft-com:datatypes""><Description dt:dt=""string"">E-Prime Primary Realtime Clock</Description><StartTime><Timestamp dt:dt=""int"">0</Timestamp><DateUtc dt:dt=""string"">2022-05-11T20:31:51Z</DateUtc></StartTime><FrequencyChanges><FrequencyChange><Frequency dt:dt=""r8"">3020371</Frequency><Timestamp dt:dt=""r8"">598641600637</Timestamp><Current dt:dt=""r8"">0</Current><DateUtc dt:dt=""string"">2022-05-11T20:31:51Z</DateUtc></FrequencyChange></FrequencyChanges></Clock>\n"	000_R01_VA_allProc-130-1	60.001	1.0.0.229	1	1641759171	Professional	2.0.10.356	2.0.10.356	05-11-2022	5/11/2022 8:31:51 PM	16:31:51	2.0.10.252	3	0.0	0.0	524902.0	22.0	524902.0	4000.0	-999999.0	756934.0	0.0	684900.0	0.0	Run4Proc	3	1	3	RunList	1.0	OfficeSmall	8000.0	0.0	546901.0	0.0	546901.0	0.0	546901.0	0.0	F4OfficeSmallBlockProc	n/a	n/a	n/a	n/a	n/a	n/a	1.0	1.0	1.0	n/a	n/a	n/a	Run4BlockList	4.0	n/a	n/a	n/a	n/a	n/a	n/a	n/a	n/a	n/a	n/a	n/a	n/a	n/a	n/a	n/a	n/a	n/a	n/a	n/a	n/a	n/a	n/a	n/a	n/a	n/a	n/a	n/a	n/a	n/a	n/a	n/a	n/a	n/a	n/a	n/a	n/a	n/a	n/a	n/a	n/a	n/a	n/a	n/a	n/a	n/a	n/a	n/a	n/a	n/a	n/a	n/a	n/a	n/a	n/a	n/a	n/a	n/a	n/a	n/a	n/a	n/a	n/a	n/a	n/a	n/a	n/a	4.0	1.0	4.0	n/a	n/a	n/a	F4_04.jpg	500.0	0.0	540401.0	0.0	540401.0	0.0	TrialProc1	F4OfficeSmallBlockList	2500.0	1.0	537902.0	1.0	537902.0	0.0	537901.0	2500.0	d	364.0	538265.0	12.999
16	2.5	000_R01_VA_allProc	130	1	"<?xml version=""1.0""?>\n<Clock xmlns:dt=""urn:schemas-microsoft-com:datatypes""><Description dt:dt=""string"">E-Prime Primary Realtime Clock</Description><StartTime><Timestamp dt:dt=""int"">0</Timestamp><DateUtc dt:dt=""string"">2022-05-11T20:31:51Z</DateUtc></StartTime><FrequencyChanges><FrequencyChange><Frequency dt:dt=""r8"">3020371</Frequency><Timestamp dt:dt=""r8"">598641600637</Timestamp><Current dt:dt=""r8"">0</Current><DateUtc dt:dt=""string"">2022-05-11T20:31:51Z</DateUtc></FrequencyChange></FrequencyChanges></Clock>\n"	000_R01_VA_allProc-130-1	60.001	1.0.0.229	1	1641759171	Professional	2.0.10.356	2.0.10.356	05-11-2022	5/11/2022 8:31:51 PM	16:31:51	2.0.10.252	3	0.0	0.0	524902.0	22.0	524902.0	4000.0	-999999.0	756934.0	0.0	684900.0	0.0	Run4Proc	3	1	3	RunList	1.0	OfficeSmall	8000.0	0.0	546901.0	0.0	546901.0	0.0	546901.0	0.0	F4OfficeSmallBlockProc	n/a	n/a	n/a	n/a	n/a	n/a	1.0	1.0	1.0	n/a	n/a	n/a	Run4BlockList	5.0	n/a	n/a	n/a	n/a	n/a	n/a	n/a	n/a	n/a	n/a	n/a	n/a	n/a	n/a	n/a	n/a	n/a	n/a	n/a	n/a	n/a	n/a	n/a	n/a	n/a	n/a	n/a	n/a	n/a	n/a	n/a	n/a	n/a	n/a	n/a	n/a	n/a	n/a	n/a	n/a	n/a	n/a	n/a	n/a	n/a	n/a	n/a	n/a	n/a	n/a	n/a	n/a	n/a	n/a	n/a	n/a	n/a	n/a	n/a	n/a	n/a	n/a	n/a	n/a	n/a	n/a	5.0	1.0	5.0	n/a	n/a	n/a	F4_05.jpg	500.0	0.0	543401.0	0.0	543401.0	0.0	TrialProc1	F4OfficeSmallBlockList	2500.0	1.0	540902.0	1.0	540902.0	0.0	540901.0	2500.0	d	699.0	541600.0	15.999
19	2.5	000_R01_VA_allProc	130	1	"<?xml version=""1.0""?>\n<Clock xmlns:dt=""urn:schemas-microsoft-com:datatypes""><Description dt:dt=""string"">E-Prime Primary Realtime Clock</Description><StartTime><Timestamp dt:dt=""int"">0</Timestamp><DateUtc dt:dt=""string"">2022-05-11T20:31:51Z</DateUtc></StartTime><FrequencyChanges><FrequencyChange><Frequency dt:dt=""r8"">3020371</Frequency><Timestamp dt:dt=""r8"">598641600637</Timestamp><Current dt:dt=""r8"">0</Current><DateUtc dt:dt=""string"">2022-05-11T20:31:51Z</DateUtc></FrequencyChange></FrequencyChanges></Clock>\n"	000_R01_VA_allProc-130-1	60.001	1.0.0.229	1	1641759171	Professional	2.0.10.356	2.0.10.356	05-11-2022	5/11/2022 8:31:51 PM	16:31:51	2.0.10.252	3	0.0	0.0	524902.0	22.0	524902.0	4000.0	-999999.0	756934.0	0.0	684900.0	0.0	Run4Proc	3	1	3	RunList	1.0	OfficeSmall	8000.0	0.0	546901.0	0.0	546901.0	0.0	546901.0	0.0	F4OfficeSmallBlockProc	n/a	n/a	n/a	n/a	n/a	n/a	1.0	1.0	1.0	n/a	n/a	n/a	Run4BlockList	6.0	n/a	n/a	n/a	n/a	n/a	n/a	n/a	n/a	n/a	n/a	n/a	n/a	n/a	n/a	n/a	n/a	n/a	n/a	n/a	n/a	n/a	n/a	n/a	n/a	n/a	n/a	n/a	n/a	n/a	n/a	n/a	n/a	n/a	n/a	n/a	n/a	n/a	n/a	n/a	n/a	n/a	n/a	n/a	n/a	n/a	n/a	n/a	n/a	n/a	n/a	n/a	n/a	n/a	n/a	n/a	n/a	n/a	n/a	n/a	n/a	n/a	n/a	n/a	n/a	n/a	n/a	6.0	1.0	6.0	n/a	n/a	n/a	F4_06.jpg	500.0	0.0	546401.0	0.0	546401.0	0.0	TrialProc1	F4OfficeSmallBlockList	2500.0	0.0	543901.0	0.0	543901.0	0.0	543901.0	2500.0	d	539.0	544440.0	18.999000000000002
30	2.5	000_R01_VA_allProc	130	1	"<?xml version=""1.0""?>\n<Clock xmlns:dt=""urn:schemas-microsoft-com:datatypes""><Description dt:dt=""string"">E-Prime Primary Realtime Clock</Description><StartTime><Timestamp dt:dt=""int"">0</Timestamp><DateUtc dt:dt=""string"">2022-05-11T20:31:51Z</DateUtc></StartTime><FrequencyChanges><FrequencyChange><Frequency dt:dt=""r8"">3020371</Frequency><Timestamp dt:dt=""r8"">598641600637</Timestamp><Current dt:dt=""r8"">0</Current><DateUtc dt:dt=""string"">2022-05-11T20:31:51Z</DateUtc></FrequencyChange></FrequencyChanges></Clock>\n"	000_R01_VA_allProc-130-1	60.001	1.0.0.229	1	1641759171	Professional	2.0.10.356	2.0.10.356	05-11-2022	5/11/2022 8:31:51 PM	16:31:51	2.0.10.252	3	0.0	0.0	524902.0	22.0	524902.0	4000.0	-999999.0	756934.0	0.0	684900.0	0.0	Run4Proc	3	1	3	RunList	2.0	HighSmallED	8000.0	0.0	572901.0	0.0	572901.0	0.0	572901.0	0.0	B4HighSmallEDBlockProc	n/a	n/a	n/a	n/a	n/a	n/a	2.0	1.0	2.0	n/a	n/a	n/a	Run4BlockList	1.0	n/a	n/a	n/a	n/a	n/a	n/a	n/a	n/a	n/a	n/a	n/a	n/a	n/a	n/a	n/a	n/a	n/a	n/a	1.0	1.0	1.0	n/a	n/a	n/a	n/a	n/a	n/a	n/a	n/a	n/a	n/a	n/a	n/a	n/a	n/a	n/a	n/a	n/a	n/a	n/a	n/a	n/a	n/a	n/a	n/a	n/a	n/a	n/a	n/a	n/a	n/a	n/a	n/a	n/a	n/a	n/a	n/a	n/a	n/a	n/a	n/a	n/a	n/a	n/a	n/a	n/a	n/a	n/a	n/a	n/a	n/a	n/a	B4_01.jpg	500.0	0.0	557401.0	0.0	557401.0	0.0	TrialProc1	B4HighSmallEDBlockList	2500.0	0.0	554901.0	0.0	554901.0	0.0	554901.0	2500.0	d	563.0	555464.0	29.999
33	2.5	000_R01_VA_allProc	130	1	"<?xml version=""1.0""?>\n<Clock xmlns:dt=""urn:schemas-microsoft-com:datatypes""><Description dt:dt=""string"">E-Prime Primary Realtime Clock</Description><StartTime><Timestamp dt:dt=""int"">0</Timestamp><DateUtc dt:dt=""string"">2022-05-11T20:31:51Z</DateUtc></StartTime><FrequencyChanges><FrequencyChange><Frequency dt:dt=""r8"">3020371</Frequency><Timestamp dt:dt=""r8"">598641600637</Timestamp><Current dt:dt=""r8"">0</Current><DateUtc dt:dt=""string"">2022-05-11T20:31:51Z</DateUtc></FrequencyChange></FrequencyChanges></Clock>\n"	000_R01_VA_allProc-130-1	60.001	1.0.0.229	1	1641759171	Professional	2.0.10.356	2.0.10.356	05-11-2022	5/11/2022 8:31:51 PM	16:31:51	2.0.10.252	3	0.0	0.0	524902.0	22.0	524902.0	4000.0	-999999.0	756934.0	0.0	684900.0	0.0	Run4Proc	3	1	3	RunList	2.0	HighSmallED	8000.0	0.0	572901.0	0.0	572901.0	0.0	572901.0	0.0	B4HighSmallEDBlockProc	n/a	n/a	n/a	n/a	n/a	n/a	2.0	1.0	2.0	n/a	n/a	n/a	Run4BlockList	2.0	n/a	n/a	n/a	n/a	n/a	n/a	n/a	n/a	n/a	n/a	n/a	n/a	n/a	n/a	n/a	n/a	n/a	n/a	2.0	1.0	2.0	n/a	n/a	n/a	n/a	n/a	n/a	n/a	n/a	n/a	n/a	n/a	n/a	n/a	n/a	n/a	n/a	n/a	n/a	n/a	n/a	n/a	n/a	n/a	n/a	n/a	n/a	n/a	n/a	n/a	n/a	n/a	n/a	n/a	n/a	n/a	n/a	n/a	n/a	n/a	n/a	n/a	n/a	n/a	n/a	n/a	n/a	n/a	n/a	n/a	n/a	n/a	B4_02.jpg	500.0	0.0	560401.0	0.0	560401.0	0.0	TrialProc1	B4HighSmallEDBlockList	2500.0	0.0	557901.0	0.0	557901.0	0.0	557901.0	2500.0	n/a	0.0	0.0	32.998999999999995
36	2.5	000_R01_VA_allProc	130	1	"<?xml version=""1.0""?>\n<Clock xmlns:dt=""urn:schemas-microsoft-com:datatypes""><Description dt:dt=""string"">E-Prime Primary Realtime Clock</Description><StartTime><Timestamp dt:dt=""int"">0</Timestamp><DateUtc dt:dt=""string"">2022-05-11T20:31:51Z</DateUtc></StartTime><FrequencyChanges><FrequencyChange><Frequency dt:dt=""r8"">3020371</Frequency><Timestamp dt:dt=""r8"">598641600637</Timestamp><Current dt:dt=""r8"">0</Current><DateUtc dt:dt=""string"">2022-05-11T20:31:51Z</DateUtc></FrequencyChange></FrequencyChanges></Clock>\n"	000_R01_VA_allProc-130-1	60.001	1.0.0.229	1	1641759171	Professional	2.0.10.356	2.0.10.356	05-11-2022	5/11/2022 8:31:51 PM	16:31:51	2.0.10.252	3	0.0	0.0	524902.0	22.0	524902.0	4000.0	-999999.0	756934.0	0.0	684900.0	0.0	Run4Proc	3	1	3	RunList	2.0	HighSmallED	8000.0	0.0	572901.0	0.0	572901.0	0.0	572901.0	0.0	B4HighSmallEDBlockProc	n/a	n/a	n/a	n/a	n/a	n/a	2.0	1.0	2.0	n/a	n/a	n/a	Run4BlockList	3.0	n/a	n/a	n/a	n/a	n/a	n/a	n/a	n/a	n/a	n/a	n/a	n/a	n/a	n/a	n/a	n/a	n/a	n/a	3.0	1.0	3.0	n/a	n/a	n/a	n/a	n/a	n/a	n/a	n/a	n/a	n/a	n/a	n/a	n/a	n/a	n/a	n/a	n/a	n/a	n/a	n/a	n/a	n/a	n/a	n/a	n/a	n/a	n/a	n/a	n/a	n/a	n/a	n/a	n/a	n/a	n/a	n/a	n/a	n/a	n/a	n/a	n/a	n/a	n/a	n/a	n/a	n/a	n/a	n/a	n/a	n/a	n/a	B4_03.jpg	500.0	0.0	563401.0	0.0	563401.0	0.0	TrialProc1	B4HighSmallEDBlockList	2500.0	0.0	560901.0	0.0	560901.0	0.0	560901.0	2500.0	d	1267.0	562168.0	35.998999999999995
39	2.5	000_R01_VA_allProc	130	1	"<?xml version=""1.0""?>\n<Clock xmlns:dt=""urn:schemas-microsoft-com:datatypes""><Description dt:dt=""string"">E-Prime Primary Realtime Clock</Description><StartTime><Timestamp dt:dt=""int"">0</Timestamp><DateUtc dt:dt=""string"">2022-05-11T20:31:51Z</DateUtc></StartTime><FrequencyChanges><FrequencyChange><Frequency dt:dt=""r8"">3020371</Frequency><Timestamp dt:dt=""r8"">598641600637</Timestamp><Current dt:dt=""r8"">0</Current><DateUtc dt:dt=""string"">2022-05-11T20:31:51Z</DateUtc></FrequencyChange></FrequencyChanges></Clock>\n"	000_R01_VA_allProc-130-1	60.001	1.0.0.229	1	1641759171	Professional	2.0.10.356	2.0.10.356	05-11-2022	5/11/2022 8:31:51 PM	16:31:51	2.0.10.252	3	0.0	0.0	524902.0	22.0	524902.0	4000.0	-999999.0	756934.0	0.0	684900.0	0.0	Run4Proc	3	1	3	RunList	2.0	HighSmallED	8000.0	0.0	572901.0	0.0	572901.0	0.0	572901.0	0.0	B4HighSmallEDBlockProc	n/a	n/a	n/a	n/a	n/a	n/a	2.0	1.0	2.0	n/a	n/a	n/a	Run4BlockList	4.0	n/a	n/a	n/a	n/a	n/a	n/a	n/a	n/a	n/a	n/a	n/a	n/a	n/a	n/a	n/a	n/a	n/a	n/a	4.0	1.0	4.0	n/a	n/a	n/a	n/a	n/a	n/a	n/a	n/a	n/a	n/a	n/a	n/a	n/a	n/a	n/a	n/a	n/a	n/a	n/a	n/a	n/a	n/a	n/a	n/a	n/a	n/a	n/a	n/a	n/a	n/a	n/a	n/a	n/a	n/a	n/a	n/a	n/a	n/a	n/a	n/a	n/a	n/a	n/a	n/a	n/a	n/a	n/a	n/a	n/a	n/a	n/a	B4_04.jpg	500.0	0.0	566401.0	0.0	566401.0	0.0	TrialProc1	B4HighSmallEDBlockList	2500.0	0.0	563901.0	0.0	563901.0	0.0	563901.0	2500.0	n/a	0.0	0.0	38.999
42	2.5	000_R01_VA_allProc	130	1	"<?xml version=""1.0""?>\n<Clock xmlns:dt=""urn:schemas-microsoft-com:datatypes""><Description dt:dt=""string"">E-Prime Primary Realtime Clock</Description><StartTime><Timestamp dt:dt=""int"">0</Timestamp><DateUtc dt:dt=""string"">2022-05-11T20:31:51Z</DateUtc></StartTime><FrequencyChanges><FrequencyChange><Frequency dt:dt=""r8"">3020371</Frequency><Timestamp dt:dt=""r8"">598641600637</Timestamp><Current dt:dt=""r8"">0</Current><DateUtc dt:dt=""string"">2022-05-11T20:31:51Z</DateUtc></FrequencyChange></FrequencyChanges></Clock>\n"	000_R01_VA_allProc-130-1	60.001	1.0.0.229	1	1641759171	Professional	2.0.10.356	2.0.10.356	05-11-2022	5/11/2022 8:31:51 PM	16:31:51	2.0.10.252	3	0.0	0.0	524902.0	22.0	524902.0	4000.0	-999999.0	756934.0	0.0	684900.0	0.0	Run4Proc	3	1	3	RunList	2.0	HighSmallED	8000.0	0.0	572901.0	0.0	572901.0	0.0	572901.0	0.0	B4HighSmallEDBlockProc	n/a	n/a	n/a	n/a	n/a	n/a	2.0	1.0	2.0	n/a	n/a	n/a	Run4BlockList	5.0	n/a	n/a	n/a	n/a	n/a	n/a	n/a	n/a	n/a	n/a	n/a	n/a	n/a	n/a	n/a	n/a	n/a	n/a	5.0	1.0	5.0	n/a	n/a	n/a	n/a	n/a	n/a	n/a	n/a	n/a	n/a	n/a	n/a	n/a	n/a	n/a	n/a	n/a	n/a	n/a	n/a	n/a	n/a	n/a	n/a	n/a	n/a	n/a	n/a	n/a	n/a	n/a	n/a	n/a	n/a	n/a	n/a	n/a	n/a	n/a	n/a	n/a	n/a	n/a	n/a	n/a	n/a	n/a	n/a	n/a	n/a	n/a	B4_05.jpg	500.0	0.0	569401.0	0.0	569401.0	0.0	TrialProc1	B4HighSmallEDBlockList	2500.0	0.0	566901.0	0.0	566901.0	0.0	566901.0	2500.0	d	1483.0	568384.0	41.999
45	2.5	000_R01_VA_allProc	130	1	"<?xml version=""1.0""?>\n<Clock xmlns:dt=""urn:schemas-microsoft-com:datatypes""><Description dt:dt=""string"">E-Prime Primary Realtime Clock</Description><StartTime><Timestamp dt:dt=""int"">0</Timestamp><DateUtc dt:dt=""string"">2022-05-11T20:31:51Z</DateUtc></StartTime><FrequencyChanges><FrequencyChange><Frequency dt:dt=""r8"">3020371</Frequency><Timestamp dt:dt=""r8"">598641600637</Timestamp><Current dt:dt=""r8"">0</Current><DateUtc dt:dt=""string"">2022-05-11T20:31:51Z</DateUtc></FrequencyChange></FrequencyChanges></Clock>\n"	000_R01_VA_allProc-130-1	60.001	1.0.0.229	1	1641759171	Professional	2.0.10.356	2.0.10.356	05-11-2022	5/11/2022 8:31:51 PM	16:31:51	2.0.10.252	3	0.0	0.0	524902.0	22.0	524902.0	4000.0	-999999.0	756934.0	0.0	684900.0	0.0	Run4Proc	3	1	3	RunList	2.0	HighSmallED	8000.0	0.0	572901.0	0.0	572901.0	0.0	572901.0	0.0	B4HighSmallEDBlockProc	n/a	n/a	n/a	n/a	n/a	n/a	2.0	1.0	2.0	n/a	n/a	n/a	Run4BlockList	6.0	n/a	n/a	n/a	n/a	n/a	n/a	n/a	n/a	n/a	n/a	n/a	n/a	n/a	n/a	n/a	n/a	n/a	n/a	6.0	1.0	6.0	n/a	n/a	n/a	n/a	n/a	n/a	n/a	n/a	n/a	n/a	n/a	n/a	n/a	n/a	n/a	n/a	n/a	n/a	n/a	n/a	n/a	n/a	n/a	n/a	n/a	n/a	n/a	n/a	n/a	n/a	n/a	n/a	n/a	n/a	n/a	n/a	n/a	n/a	n/a	n/a	n/a	n/a	n/a	n/a	n/a	n/a	n/a	n/a	n/a	n/a	n/a	B4_06.jpg	500.0	0.0	572401.0	0.0	572401.0	0.0	TrialProc1	B4HighSmallEDBlockList	2500.0	0.0	569901.0	0.0	569901.0	0.0	569901.0	2500.0	d	651.0	570552.0	44.999
56	2.5	000_R01_VA_allProc	130	1	"<?xml version=""1.0""?>\n<Clock xmlns:dt=""urn:schemas-microsoft-com:datatypes""><Description dt:dt=""string"">E-Prime Primary Realtime Clock</Description><StartTime><Timestamp dt:dt=""int"">0</Timestamp><DateUtc dt:dt=""string"">2022-05-11T20:31:51Z</DateUtc></StartTime><FrequencyChanges><FrequencyChange><Frequency dt:dt=""r8"">3020371</Frequency><Timestamp dt:dt=""r8"">598641600637</Timestamp><Current dt:dt=""r8"">0</Current><DateUtc dt:dt=""string"">2022-05-11T20:31:51Z</DateUtc></FrequencyChange></FrequencyChanges></Clock>\n"	000_R01_VA_allProc-130-1	60.001	1.0.0.229	1	1641759171	Professional	2.0.10.356	2.0.10.356	05-11-2022	5/11/2022 8:31:51 PM	16:31:51	2.0.10.252	3	0.0	0.0	524902.0	22.0	524902.0	4000.0	-999999.0	756934.0	0.0	684900.0	0.0	Run4Proc	3	1	3	RunList	3.0	LowLargeED	8000.0	0.0	598901.0	0.0	598901.0	0.0	598901.0	0.0	C4LowLargeEDBlockProc	n/a	n/a	n/a	n/a	n/a	n/a	3.0	1.0	3.0	n/a	n/a	n/a	Run4BlockList	1.0	n/a	n/a	n/a	n/a	n/a	n/a	n/a	n/a	n/a	n/a	n/a	n/a	n/a	n/a	n/a	n/a	n/a	n/a	n/a	n/a	n/a	n/a	n/a	n/a	n/a	n/a	n/a	n/a	n/a	n/a	1.0	1.0	1.0	n/a	n/a	n/a	n/a	n/a	n/a	n/a	n/a	n/a	n/a	n/a	n/a	n/a	n/a	n/a	n/a	n/a	n/a	n/a	n/a	n/a	n/a	n/a	n/a	n/a	n/a	n/a	n/a	n/a	n/a	n/a	n/a	n/a	n/a	n/a	n/a	n/a	n/a	n/a	C4_01.jpg	500.0	0.0	583401.0	0.0	583401.0	0.0	TrialProc1	C4LowLargeEDBlockList	2500.0	0.0	580901.0	0.0	580901.0	0.0	580901.0	2500.0	d	771.0	581672.0	55.999
59	2.5	000_R01_VA_allProc	130	1	"<?xml version=""1.0""?>\n<Clock xmlns:dt=""urn:schemas-microsoft-com:datatypes""><Description dt:dt=""string"">E-Prime Primary Realtime Clock</Description><StartTime><Timestamp dt:dt=""int"">0</Timestamp><DateUtc dt:dt=""string"">2022-05-11T20:31:51Z</DateUtc></StartTime><FrequencyChanges><FrequencyChange><Frequency dt:dt=""r8"">3020371</Frequency><Timestamp dt:dt=""r8"">598641600637</Timestamp><Current dt:dt=""r8"">0</Current><DateUtc dt:dt=""string"">2022-05-11T20:31:51Z</DateUtc></FrequencyChange></FrequencyChanges></Clock>\n"	000_R01_VA_allProc-130-1	60.001	1.0.0.229	1	1641759171	Professional	2.0.10.356	2.0.10.356	05-11-2022	5/11/2022 8:31:51 PM	16:31:51	2.0.10.252	3	0.0	0.0	524902.0	22.0	524902.0	4000.0	-999999.0	756934.0	0.0	684900.0	0.0	Run4Proc	3	1	3	RunList	3.0	LowLargeED	8000.0	0.0	598901.0	0.0	598901.0	0.0	598901.0	0.0	C4LowLargeEDBlockProc	n/a	n/a	n/a	n/a	n/a	n/a	3.0	1.0	3.0	n/a	n/a	n/a	Run4BlockList	2.0	n/a	n/a	n/a	n/a	n/a	n/a	n/a	n/a	n/a	n/a	n/a	n/a	n/a	n/a	n/a	n/a	n/a	n/a	n/a	n/a	n/a	n/a	n/a	n/a	n/a	n/a	n/a	n/a	n/a	n/a	2.0	1.0	2.0	n/a	n/a	n/a	n/a	n/a	n/a	n/a	n/a	n/a	n/a	n/a	n/a	n/a	n/a	n/a	n/a	n/a	n/a	n/a	n/a	n/a	n/a	n/a	n/a	n/a	n/a	n/a	n/a	n/a	n/a	n/a	n/a	n/a	n/a	n/a	n/a	n/a	n/a	n/a	C4_02.jpg	500.0	0.0	586401.0	0.0	586401.0	0.0	TrialProc1	C4LowLargeEDBlockList	2500.0	0.0	583901.0	0.0	583901.0	0.0	583901.0	2500.0	d	2051.0	585952.0	58.999
62	2.5	000_R01_VA_allProc	130	1	"<?xml version=""1.0""?>\n<Clock xmlns:dt=""urn:schemas-microsoft-com:datatypes""><Description dt:dt=""string"">E-Prime Primary Realtime Clock</Description><StartTime><Timestamp dt:dt=""int"">0</Timestamp><DateUtc dt:dt=""string"">2022-05-11T20:31:51Z</DateUtc></StartTime><FrequencyChanges><FrequencyChange><Frequency dt:dt=""r8"">3020371</Frequency><Timestamp dt:dt=""r8"">598641600637</Timestamp><Current dt:dt=""r8"">0</Current><DateUtc dt:dt=""string"">2022-05-11T20:31:51Z</DateUtc></FrequencyChange></FrequencyChanges></Clock>\n"	000_R01_VA_allProc-130-1	60.001	1.0.0.229	1	1641759171	Professional	2.0.10.356	2.0.10.356	05-11-2022	5/11/2022 8:31:51 PM	16:31:51	2.0.10.252	3	0.0	0.0	524902.0	22.0	524902.0	4000.0	-999999.0	756934.0	0.0	684900.0	0.0	Run4Proc	3	1	3	RunList	3.0	LowLargeED	8000.0	0.0	598901.0	0.0	598901.0	0.0	598901.0	0.0	C4LowLargeEDBlockProc	n/a	n/a	n/a	n/a	n/a	n/a	3.0	1.0	3.0	n/a	n/a	n/a	Run4BlockList	3.0	n/a	n/a	n/a	n/a	n/a	n/a	n/a	n/a	n/a	n/a	n/a	n/a	n/a	n/a	n/a	n/a	n/a	n/a	n/a	n/a	n/a	n/a	n/a	n/a	n/a	n/a	n/a	n/a	n/a	n/a	3.0	1.0	3.0	n/a	n/a	n/a	n/a	n/a	n/a	n/a	n/a	n/a	n/a	n/a	n/a	n/a	n/a	n/a	n/a	n/a	n/a	n/a	n/a	n/a	n/a	n/a	n/a	n/a	n/a	n/a	n/a	n/a	n/a	n/a	n/a	n/a	n/a	n/a	n/a	n/a	n/a	n/a	C4_03.jpg	500.0	0.0	589401.0	0.0	589401.0	0.0	TrialProc1	C4LowLargeEDBlockList	2500.0	0.0	586901.0	0.0	586901.0	0.0	586901.0	2500.0	d	771.0	587672.0	61.999
65	2.5	000_R01_VA_allProc	130	1	"<?xml version=""1.0""?>\n<Clock xmlns:dt=""urn:schemas-microsoft-com:datatypes""><Description dt:dt=""string"">E-Prime Primary Realtime Clock</Description><StartTime><Timestamp dt:dt=""int"">0</Timestamp><DateUtc dt:dt=""string"">2022-05-11T20:31:51Z</DateUtc></StartTime><FrequencyChanges><FrequencyChange><Frequency dt:dt=""r8"">3020371</Frequency><Timestamp dt:dt=""r8"">598641600637</Timestamp><Current dt:dt=""r8"">0</Current><DateUtc dt:dt=""string"">2022-05-11T20:31:51Z</DateUtc></FrequencyChange></FrequencyChanges></Clock>\n"	000_R01_VA_allProc-130-1	60.001	1.0.0.229	1	1641759171	Professional	2.0.10.356	2.0.10.356	05-11-2022	5/11/2022 8:31:51 PM	16:31:51	2.0.10.252	3	0.0	0.0	524902.0	22.0	524902.0	4000.0	-999999.0	756934.0	0.0	684900.0	0.0	Run4Proc	3	1	3	RunList	3.0	LowLargeED	8000.0	0.0	598901.0	0.0	598901.0	0.0	598901.0	0.0	C4LowLargeEDBlockProc	n/a	n/a	n/a	n/a	n/a	n/a	3.0	1.0	3.0	n/a	n/a	n/a	Run4BlockList	4.0	n/a	n/a	n/a	n/a	n/a	n/a	n/a	n/a	n/a	n/a	n/a	n/a	n/a	n/a	n/a	n/a	n/a	n/a	n/a	n/a	n/a	n/a	n/a	n/a	n/a	n/a	n/a	n/a	n/a	n/a	4.0	1.0	4.0	n/a	n/a	n/a	n/a	n/a	n/a	n/a	n/a	n/a	n/a	n/a	n/a	n/a	n/a	n/a	n/a	n/a	n/a	n/a	n/a	n/a	n/a	n/a	n/a	n/a	n/a	n/a	n/a	n/a	n/a	n/a	n/a	n/a	n/a	n/a	n/a	n/a	n/a	n/a	C4_04.jpg	500.0	0.0	592401.0	0.0	592401.0	0.0	TrialProc1	C4LowLargeEDBlockList	2500.0	0.0	589901.0	0.0	589901.0	0.0	589901.0	2500.0	d	395.0	590296.0	64.999
68	2.5	000_R01_VA_allProc	130	1	"<?xml version=""1.0""?>\n<Clock xmlns:dt=""urn:schemas-microsoft-com:datatypes""><Description dt:dt=""string"">E-Prime Primary Realtime Clock</Description><StartTime><Timestamp dt:dt=""int"">0</Timestamp><DateUtc dt:dt=""string"">2022-05-11T20:31:51Z</DateUtc></StartTime><FrequencyChanges><FrequencyChange><Frequency dt:dt=""r8"">3020371</Frequency><Timestamp dt:dt=""r8"">598641600637</Timestamp><Current dt:dt=""r8"">0</Current><DateUtc dt:dt=""string"">2022-05-11T20:31:51Z</DateUtc></FrequencyChange></FrequencyChanges></Clock>\n"	000_R01_VA_allProc-130-1	60.001	1.0.0.229	1	1641759171	Professional	2.0.10.356	2.0.10.356	05-11-2022	5/11/2022 8:31:51 PM	16:31:51	2.0.10.252	3	0.0	0.0	524902.0	22.0	524902.0	4000.0	-999999.0	756934.0	0.0	684900.0	0.0	Run4Proc	3	1	3	RunList	3.0	LowLargeED	8000.0	0.0	598901.0	0.0	598901.0	0.0	598901.0	0.0	C4LowLargeEDBlockProc	n/a	n/a	n/a	n/a	n/a	n/a	3.0	1.0	3.0	n/a	n/a	n/a	Run4BlockList	5.0	n/a	n/a	n/a	n/a	n/a	n/a	n/a	n/a	n/a	n/a	n/a	n/a	n/a	n/a	n/a	n/a	n/a	n/a	n/a	n/a	n/a	n/a	n/a	n/a	n/a	n/a	n/a	n/a	n/a	n/a	5.0	1.0	5.0	n/a	n/a	n/a	n/a	n/a	n/a	n/a	n/a	n/a	n/a	n/a	n/a	n/a	n/a	n/a	n/a	n/a	n/a	n/a	n/a	n/a	n/a	n/a	n/a	n/a	n/a	n/a	n/a	n/a	n/a	n/a	n/a	n/a	n/a	n/a	n/a	n/a	n/a	n/a	C4_05.jpg	500.0	0.0	595401.0	0.0	595401.0	0.0	TrialProc1	C4LowLargeEDBlockList	2500.0	0.0	592901.0	0.0	592901.0	0.0	592901.0	2500.0	d	395.0	593296.0	67.999
71	2.5	000_R01_VA_allProc	130	1	"<?xml version=""1.0""?>\n<Clock xmlns:dt=""urn:schemas-microsoft-com:datatypes""><Description dt:dt=""string"">E-Prime Primary Realtime Clock</Description><StartTime><Timestamp dt:dt=""int"">0</Timestamp><DateUtc dt:dt=""string"">2022-05-11T20:31:51Z</DateUtc></StartTime><FrequencyChanges><FrequencyChange><Frequency dt:dt=""r8"">3020371</Frequency><Timestamp dt:dt=""r8"">598641600637</Timestamp><Current dt:dt=""r8"">0</Current><DateUtc dt:dt=""string"">2022-05-11T20:31:51Z</DateUtc></FrequencyChange></FrequencyChanges></Clock>\n"	000_R01_VA_allProc-130-1	60.001	1.0.0.229	1	1641759171	Professional	2.0.10.356	2.0.10.356	05-11-2022	5/11/2022 8:31:51 PM	16:31:51	2.0.10.252	3	0.0	0.0	524902.0	22.0	524902.0	4000.0	-999999.0	756934.0	0.0	684900.0	0.0	Run4Proc	3	1	3	RunList	3.0	LowLargeED	8000.0	0.0	598901.0	0.0	598901.0	0.0	598901.0	0.0	C4LowLargeEDBlockProc	n/a	n/a	n/a	n/a	n/a	n/a	3.0	1.0	3.0	n/a	n/a	n/a	Run4BlockList	6.0	n/a	n/a	n/a	n/a	n/a	n/a	n/a	n/a	n/a	n/a	n/a	n/a	n/a	n/a	n/a	n/a	n/a	n/a	n/a	n/a	n/a	n/a	n/a	n/a	n/a	n/a	n/a	n/a	n/a	n/a	6.0	1.0	6.0	n/a	n/a	n/a	n/a	n/a	n/a	n/a	n/a	n/a	n/a	n/a	n/a	n/a	n/a	n/a	n/a	n/a	n/a	n/a	n/a	n/a	n/a	n/a	n/a	n/a	n/a	n/a	n/a	n/a	n/a	n/a	n/a	n/a	n/a	n/a	n/a	n/a	n/a	n/a	C4_06.jpg	500.0	0.0	598401.0	0.0	598401.0	0.0	TrialProc1	C4LowLargeEDBlockList	2500.0	0.0	595901.0	0.0	595901.0	0.0	595901.0	2500.0	d	1955.0	597856.0	70.999
82	2.5	000_R01_VA_allProc	130	1	"<?xml version=""1.0""?>\n<Clock xmlns:dt=""urn:schemas-microsoft-com:datatypes""><Description dt:dt=""string"">E-Prime Primary Realtime Clock</Description><StartTime><Timestamp dt:dt=""int"">0</Timestamp><DateUtc dt:dt=""string"">2022-05-11T20:31:51Z</DateUtc></StartTime><FrequencyChanges><FrequencyChange><Frequency dt:dt=""r8"">3020371</Frequency><Timestamp dt:dt=""r8"">598641600637</Timestamp><Current dt:dt=""r8"">0</Current><DateUtc dt:dt=""string"">2022-05-11T20:31:51Z</DateUtc></FrequencyChange></FrequencyChanges></Clock>\n"	000_R01_VA_allProc-130-1	60.001	1.0.0.229	1	1641759171	Professional	2.0.10.356	2.0.10.356	05-11-2022	5/11/2022 8:31:51 PM	16:31:51	2.0.10.252	3	0.0	0.0	524902.0	22.0	524902.0	4000.0	-999999.0	756934.0	0.0	684900.0	0.0	Run4Proc	3	1	3	RunList	4.0	OfficeLarge	8000.0	0.0	624901.0	0.0	624901.0	0.0	624901.0	0.0	E4OfficeLargeBlockProc	n/a	n/a	n/a	n/a	n/a	n/a	4.0	1.0	4.0	n/a	n/a	n/a	Run4BlockList	1.0	n/a	n/a	n/a	n/a	n/a	n/a	n/a	n/a	n/a	n/a	n/a	n/a	n/a	n/a	n/a	n/a	n/a	n/a	n/a	n/a	n/a	n/a	n/a	n/a	n/a	n/a	n/a	n/a	n/a	n/a	n/a	n/a	n/a	n/a	n/a	n/a	n/a	n/a	n/a	n/a	n/a	n/a	n/a	n/a	n/a	n/a	n/a	n/a	n/a	n/a	n/a	n/a	n/a	n/a	1.0	1.0	1.0	n/a	n/a	n/a	n/a	n/a	n/a	n/a	n/a	n/a	n/a	n/a	n/a	n/a	n/a	n/a	E4_01.jpg	500.0	0.0	609401.0	0.0	609401.0	0.0	TrialProc1	E4OfficeLargeBlockList	2500.0	0.0	606901.0	0.0	606901.0	0.0	606901.0	2500.0	d	627.0	607528.0	81.999
85	2.5	000_R01_VA_allProc	130	1	"<?xml version=""1.0""?>\n<Clock xmlns:dt=""urn:schemas-microsoft-com:datatypes""><Description dt:dt=""string"">E-Prime Primary Realtime Clock</Description><StartTime><Timestamp dt:dt=""int"">0</Timestamp><DateUtc dt:dt=""string"">2022-05-11T20:31:51Z</DateUtc></StartTime><FrequencyChanges><FrequencyChange><Frequency dt:dt=""r8"">3020371</Frequency><Timestamp dt:dt=""r8"">598641600637</Timestamp><Current dt:dt=""r8"">0</Current><DateUtc dt:dt=""string"">2022-05-11T20:31:51Z</DateUtc></FrequencyChange></FrequencyChanges></Clock>\n"	000_R01_VA_allProc-130-1	60.001	1.0.0.229	1	1641759171	Professional	2.0.10.356	2.0.10.356	05-11-2022	5/11/2022 8:31:51 PM	16:31:51	2.0.10.252	3	0.0	0.0	524902.0	22.0	524902.0	4000.0	-999999.0	756934.0	0.0	684900.0	0.0	Run4Proc	3	1	3	RunList	4.0	OfficeLarge	8000.0	0.0	624901.0	0.0	624901.0	0.0	624901.0	0.0	E4OfficeLargeBlockProc	n/a	n/a	n/a	n/a	n/a	n/a	4.0	1.0	4.0	n/a	n/a	n/a	Run4BlockList	2.0	n/a	n/a	n/a	n/a	n/a	n/a	n/a	n/a	n/a	n/a	n/a	n/a	n/a	n/a	n/a	n/a	n/a	n/a	n/a	n/a	n/a	n/a	n/a	n/a	n/a	n/a	n/a	n/a	n/a	n/a	n/a	n/a	n/a	n/a	n/a	n/a	n/a	n/a	n/a	n/a	n/a	n/a	n/a	n/a	n/a	n/a	n/a	n/a	n/a	n/a	n/a	n/a	n/a	n/a	2.0	1.0	2.0	n/a	n/a	n/a	n/a	n/a	n/a	n/a	n/a	n/a	n/a	n/a	n/a	n/a	n/a	n/a	E4_02.jpg	500.0	0.0	612401.0	0.0	612401.0	0.0	TrialProc1	E4OfficeLargeBlockList	2500.0	0.0	609901.0	0.0	609901.0	0.0	609901.0	2500.0	d	443.0	610344.0	84.999
88	2.5	000_R01_VA_allProc	130	1	"<?xml version=""1.0""?>\n<Clock xmlns:dt=""urn:schemas-microsoft-com:datatypes""><Description dt:dt=""string"">E-Prime Primary Realtime Clock</Description><StartTime><Timestamp dt:dt=""int"">0</Timestamp><DateUtc dt:dt=""string"">2022-05-11T20:31:51Z</DateUtc></StartTime><FrequencyChanges><FrequencyChange><Frequency dt:dt=""r8"">3020371</Frequency><Timestamp dt:dt=""r8"">598641600637</Timestamp><Current dt:dt=""r8"">0</Current><DateUtc dt:dt=""string"">2022-05-11T20:31:51Z</DateUtc></FrequencyChange></FrequencyChanges></Clock>\n"	000_R01_VA_allProc-130-1	60.001	1.0.0.229	1	1641759171	Professional	2.0.10.356	2.0.10.356	05-11-2022	5/11/2022 8:31:51 PM	16:31:51	2.0.10.252	3	0.0	0.0	524902.0	22.0	524902.0	4000.0	-999999.0	756934.0	0.0	684900.0	0.0	Run4Proc	3	1	3	RunList	4.0	OfficeLarge	8000.0	0.0	624901.0	0.0	624901.0	0.0	624901.0	0.0	E4OfficeLargeBlockProc	n/a	n/a	n/a	n/a	n/a	n/a	4.0	1.0	4.0	n/a	n/a	n/a	Run4BlockList	3.0	n/a	n/a	n/a	n/a	n/a	n/a	n/a	n/a	n/a	n/a	n/a	n/a	n/a	n/a	n/a	n/a	n/a	n/a	n/a	n/a	n/a	n/a	n/a	n/a	n/a	n/a	n/a	n/a	n/a	n/a	n/a	n/a	n/a	n/a	n/a	n/a	n/a	n/a	n/a	n/a	n/a	n/a	n/a	n/a	n/a	n/a	n/a	n/a	n/a	n/a	n/a	n/a	n/a	n/a	3.0	1.0	3.0	n/a	n/a	n/a	n/a	n/a	n/a	n/a	n/a	n/a	n/a	n/a	n/a	n/a	n/a	n/a	E4_03.jpg	500.0	0.0	615401.0	0.0	615401.0	0.0	TrialProc1	E4OfficeLargeBlockList	2500.0	0.0	612901.0	0.0	612901.0	0.0	612901.0	2500.0	d	923.0	613824.0	87.999
91	2.5	000_R01_VA_allProc	130	1	"<?xml version=""1.0""?>\n<Clock xmlns:dt=""urn:schemas-microsoft-com:datatypes""><Description dt:dt=""string"">E-Prime Primary Realtime Clock</Description><StartTime><Timestamp dt:dt=""int"">0</Timestamp><DateUtc dt:dt=""string"">2022-05-11T20:31:51Z</DateUtc></StartTime><FrequencyChanges><FrequencyChange><Frequency dt:dt=""r8"">3020371</Frequency><Timestamp dt:dt=""r8"">598641600637</Timestamp><Current dt:dt=""r8"">0</Current><DateUtc dt:dt=""string"">2022-05-11T20:31:51Z</DateUtc></FrequencyChange></FrequencyChanges></Clock>\n"	000_R01_VA_allProc-130-1	60.001	1.0.0.229	1	1641759171	Professional	2.0.10.356	2.0.10.356	05-11-2022	5/11/2022 8:31:51 PM	16:31:51	2.0.10.252	3	0.0	0.0	524902.0	22.0	524902.0	4000.0	-999999.0	756934.0	0.0	684900.0	0.0	Run4Proc	3	1	3	RunList	4.0	OfficeLarge	8000.0	0.0	624901.0	0.0	624901.0	0.0	624901.0	0.0	E4OfficeLargeBlockProc	n/a	n/a	n/a	n/a	n/a	n/a	4.0	1.0	4.0	n/a	n/a	n/a	Run4BlockList	4.0	n/a	n/a	n/a	n/a	n/a	n/a	n/a	n/a	n/a	n/a	n/a	n/a	n/a	n/a	n/a	n/a	n/a	n/a	n/a	n/a	n/a	n/a	n/a	n/a	n/a	n/a	n/a	n/a	n/a	n/a	n/a	n/a	n/a	n/a	n/a	n/a	n/a	n/a	n/a	n/a	n/a	n/a	n/a	n/a	n/a	n/a	n/a	n/a	n/a	n/a	n/a	n/a	n/a	n/a	4.0	1.0	4.0	n/a	n/a	n/a	n/a	n/a	n/a	n/a	n/a	n/a	n/a	n/a	n/a	n/a	n/a	n/a	E4_04.jpg	500.0	0.0	618401.0	0.0	618401.0	0.0	TrialProc1	E4OfficeLargeBlockList	2500.0	0.0	615901.0	0.0	615901.0	0.0	615901.0	2500.0	n/a	0.0	0.0	90.999
94	2.5	000_R01_VA_allProc	130	1	"<?xml version=""1.0""?>\n<Clock xmlns:dt=""urn:schemas-microsoft-com:datatypes""><Description dt:dt=""string"">E-Prime Primary Realtime Clock</Description><StartTime><Timestamp dt:dt=""int"">0</Timestamp><DateUtc dt:dt=""string"">2022-05-11T20:31:51Z</DateUtc></StartTime><FrequencyChanges><FrequencyChange><Frequency dt:dt=""r8"">3020371</Frequency><Timestamp dt:dt=""r8"">598641600637</Timestamp><Current dt:dt=""r8"">0</Current><DateUtc dt:dt=""string"">2022-05-11T20:31:51Z</DateUtc></FrequencyChange></FrequencyChanges></Clock>\n"	000_R01_VA_allProc-130-1	60.001	1.0.0.229	1	1641759171	Professional	2.0.10.356	2.0.10.356	05-11-2022	5/11/2022 8:31:51 PM	16:31:51	2.0.10.252	3	0.0	0.0	524902.0	22.0	524902.0	4000.0	-999999.0	756934.0	0.0	684900.0	0.0	Run4Proc	3	1	3	RunList	4.0	OfficeLarge	8000.0	0.0	624901.0	0.0	624901.0	0.0	624901.0	0.0	E4OfficeLargeBlockProc	n/a	n/a	n/a	n/a	n/a	n/a	4.0	1.0	4.0	n/a	n/a	n/a	Run4BlockList	5.0	n/a	n/a	n/a	n/a	n/a	n/a	n/a	n/a	n/a	n/a	n/a	n/a	n/a	n/a	n/a	n/a	n/a	n/a	n/a	n/a	n/a	n/a	n/a	n/a	n/a	n/a	n/a	n/a	n/a	n/a	n/a	n/a	n/a	n/a	n/a	n/a	n/a	n/a	n/a	n/a	n/a	n/a	n/a	n/a	n/a	n/a	n/a	n/a	n/a	n/a	n/a	n/a	n/a	n/a	5.0	1.0	5.0	n/a	n/a	n/a	n/a	n/a	n/a	n/a	n/a	n/a	n/a	n/a	n/a	n/a	n/a	n/a	E4_05.jpg	500.0	0.0	621401.0	0.0	621401.0	0.0	TrialProc1	E4OfficeLargeBlockList	2500.0	0.0	618901.0	0.0	618901.0	0.0	618901.0	2500.0	d	1051.0	619952.0	93.999
97	2.5	000_R01_VA_allProc	130	1	"<?xml version=""1.0""?>\n<Clock xmlns:dt=""urn:schemas-microsoft-com:datatypes""><Description dt:dt=""string"">E-Prime Primary Realtime Clock</Description><StartTime><Timestamp dt:dt=""int"">0</Timestamp><DateUtc dt:dt=""string"">2022-05-11T20:31:51Z</DateUtc></StartTime><FrequencyChanges><FrequencyChange><Frequency dt:dt=""r8"">3020371</Frequency><Timestamp dt:dt=""r8"">598641600637</Timestamp><Current dt:dt=""r8"">0</Current><DateUtc dt:dt=""string"">2022-05-11T20:31:51Z</DateUtc></FrequencyChange></FrequencyChanges></Clock>\n"	000_R01_VA_allProc-130-1	60.001	1.0.0.229	1	1641759171	Professional	2.0.10.356	2.0.10.356	05-11-2022	5/11/2022 8:31:51 PM	16:31:51	2.0.10.252	3	0.0	0.0	524902.0	22.0	524902.0	4000.0	-999999.0	756934.0	0.0	684900.0	0.0	Run4Proc	3	1	3	RunList	4.0	OfficeLarge	8000.0	0.0	624901.0	0.0	624901.0	0.0	624901.0	0.0	E4OfficeLargeBlockProc	n/a	n/a	n/a	n/a	n/a	n/a	4.0	1.0	4.0	n/a	n/a	n/a	Run4BlockList	6.0	n/a	n/a	n/a	n/a	n/a	n/a	n/a	n/a	n/a	n/a	n/a	n/a	n/a	n/a	n/a	n/a	n/a	n/a	n/a	n/a	n/a	n/a	n/a	n/a	n/a	n/a	n/a	n/a	n/a	n/a	n/a	n/a	n/a	n/a	n/a	n/a	n/a	n/a	n/a	n/a	n/a	n/a	n/a	n/a	n/a	n/a	n/a	n/a	n/a	n/a	n/a	n/a	n/a	n/a	6.0	1.0	6.0	n/a	n/a	n/a	n/a	n/a	n/a	n/a	n/a	n/a	n/a	n/a	n/a	n/a	n/a	n/a	E4_06.jpg	500.0	0.0	624401.0	0.0	624401.0	0.0	TrialProc1	E4OfficeLargeBlockList	2500.0	0.0	621901.0	0.0	621901.0	0.0	621901.0	2500.0	d	1259.0	623160.0	96.999
108	2.5	000_R01_VA_allProc	130	1	"<?xml version=""1.0""?>\n<Clock xmlns:dt=""urn:schemas-microsoft-com:datatypes""><Description dt:dt=""string"">E-Prime Primary Realtime Clock</Description><StartTime><Timestamp dt:dt=""int"">0</Timestamp><DateUtc dt:dt=""string"">2022-05-11T20:31:51Z</DateUtc></StartTime><FrequencyChanges><FrequencyChange><Frequency dt:dt=""r8"">3020371</Frequency><Timestamp dt:dt=""r8"">598641600637</Timestamp><Current dt:dt=""r8"">0</Current><DateUtc dt:dt=""string"">2022-05-11T20:31:51Z</DateUtc></FrequencyChange></FrequencyChanges></Clock>\n"	000_R01_VA_allProc-130-1	60.001	1.0.0.229	1	1641759171	Professional	2.0.10.356	2.0.10.356	05-11-2022	5/11/2022 8:31:51 PM	16:31:51	2.0.10.252	3	0.0	0.0	524902.0	22.0	524902.0	4000.0	-999999.0	756934.0	0.0	684900.0	0.0	Run4Proc	3	1	3	RunList	5.0	LowSmallED	8000.0	0.0	650900.0	0.0	650900.0	0.0	650900.0	0.0	D4LowSmallEDBlockProc	n/a	n/a	n/a	n/a	n/a	n/a	5.0	1.0	5.0	n/a	n/a	n/a	Run4BlockList	1.0	n/a	n/a	n/a	n/a	n/a	n/a	n/a	n/a	n/a	n/a	n/a	n/a	n/a	n/a	n/a	n/a	n/a	n/a	n/a	n/a	n/a	n/a	n/a	n/a	n/a	n/a	n/a	n/a	n/a	n/a	n/a	n/a	n/a	n/a	n/a	n/a	n/a	n/a	n/a	n/a	n/a	n/a	1.0	1.0	1.0	n/a	n/a	n/a	n/a	n/a	n/a	n/a	n/a	n/a	n/a	n/a	n/a	n/a	n/a	n/a	n/a	n/a	n/a	n/a	n/a	n/a	n/a	n/a	n/a	n/a	n/a	n/a	D4_01.jpg	500.0	0.0	635401.0	0.0	635401.0	0.0	TrialProc1	D4LowSmallEDBlockList	2500.0	0.0	632901.0	0.0	632901.0	0.0	632901.0	2500.0	d	699.0	633600.0	107.999
111	2.5	000_R01_VA_allProc	130	1	"<?xml version=""1.0""?>\n<Clock xmlns:dt=""urn:schemas-microsoft-com:datatypes""><Description dt:dt=""string"">E-Prime Primary Realtime Clock</Description><StartTime><Timestamp dt:dt=""int"">0</Timestamp><DateUtc dt:dt=""string"">2022-05-11T20:31:51Z</DateUtc></StartTime><FrequencyChanges><FrequencyChange><Frequency dt:dt=""r8"">3020371</Frequency><Timestamp dt:dt=""r8"">598641600637</Timestamp><Current dt:dt=""r8"">0</Current><DateUtc dt:dt=""string"">2022-05-11T20:31:51Z</DateUtc></FrequencyChange></FrequencyChanges></Clock>\n"	000_R01_VA_allProc-130-1	60.001	1.0.0.229	1	1641759171	Professional	2.0.10.356	2.0.10.356	05-11-2022	5/11/2022 8:31:51 PM	16:31:51	2.0.10.252	3	0.0	0.0	524902.0	22.0	524902.0	4000.0	-999999.0	756934.0	0.0	684900.0	0.0	Run4Proc	3	1	3	RunList	5.0	LowSmallED	8000.0	0.0	650900.0	0.0	650900.0	0.0	650900.0	0.0	D4LowSmallEDBlockProc	n/a	n/a	n/a	n/a	n/a	n/a	5.0	1.0	5.0	n/a	n/a	n/a	Run4BlockList	2.0	n/a	n/a	n/a	n/a	n/a	n/a	n/a	n/a	n/a	n/a	n/a	n/a	n/a	n/a	n/a	n/a	n/a	n/a	n/a	n/a	n/a	n/a	n/a	n/a	n/a	n/a	n/a	n/a	n/a	n/a	n/a	n/a	n/a	n/a	n/a	n/a	n/a	n/a	n/a	n/a	n/a	n/a	2.0	1.0	2.0	n/a	n/a	n/a	n/a	n/a	n/a	n/a	n/a	n/a	n/a	n/a	n/a	n/a	n/a	n/a	n/a	n/a	n/a	n/a	n/a	n/a	n/a	n/a	n/a	n/a	n/a	n/a	D4_02.jpg	500.0	0.0	638401.0	0.0	638401.0	0.0	TrialProc1	D4LowSmallEDBlockList	2500.0	0.0	635901.0	0.0	635901.0	0.0	635901.0	2500.0	d	1667.0	637568.0	110.999
114	2.5	000_R01_VA_allProc	130	1	"<?xml version=""1.0""?>\n<Clock xmlns:dt=""urn:schemas-microsoft-com:datatypes""><Description dt:dt=""string"">E-Prime Primary Realtime Clock</Description><StartTime><Timestamp dt:dt=""int"">0</Timestamp><DateUtc dt:dt=""string"">2022-05-11T20:31:51Z</DateUtc></StartTime><FrequencyChanges><FrequencyChange><Frequency dt:dt=""r8"">3020371</Frequency><Timestamp dt:dt=""r8"">598641600637</Timestamp><Current dt:dt=""r8"">0</Current><DateUtc dt:dt=""string"">2022-05-11T20:31:51Z</DateUtc></FrequencyChange></FrequencyChanges></Clock>\n"	000_R01_VA_allProc-130-1	60.001	1.0.0.229	1	1641759171	Professional	2.0.10.356	2.0.10.356	05-11-2022	5/11/2022 8:31:51 PM	16:31:51	2.0.10.252	3	0.0	0.0	524902.0	22.0	524902.0	4000.0	-999999.0	756934.0	0.0	684900.0	0.0	Run4Proc	3	1	3	RunList	5.0	LowSmallED	8000.0	0.0	650900.0	0.0	650900.0	0.0	650900.0	0.0	D4LowSmallEDBlockProc	n/a	n/a	n/a	n/a	n/a	n/a	5.0	1.0	5.0	n/a	n/a	n/a	Run4BlockList	3.0	n/a	n/a	n/a	n/a	n/a	n/a	n/a	n/a	n/a	n/a	n/a	n/a	n/a	n/a	n/a	n/a	n/a	n/a	n/a	n/a	n/a	n/a	n/a	n/a	n/a	n/a	n/a	n/a	n/a	n/a	n/a	n/a	n/a	n/a	n/a	n/a	n/a	n/a	n/a	n/a	n/a	n/a	3.0	1.0	3.0	n/a	n/a	n/a	n/a	n/a	n/a	n/a	n/a	n/a	n/a	n/a	n/a	n/a	n/a	n/a	n/a	n/a	n/a	n/a	n/a	n/a	n/a	n/a	n/a	n/a	n/a	n/a	D4_03.jpg	500.0	1.0	641401.0	-1.0	641400.0	0.0	TrialProc1	D4LowSmallEDBlockList	2500.0	0.0	638901.0	0.0	638901.0	0.0	638901.0	2499.0	d	579.0	639480.0	113.999
117	2.5	000_R01_VA_allProc	130	1	"<?xml version=""1.0""?>\n<Clock xmlns:dt=""urn:schemas-microsoft-com:datatypes""><Description dt:dt=""string"">E-Prime Primary Realtime Clock</Description><StartTime><Timestamp dt:dt=""int"">0</Timestamp><DateUtc dt:dt=""string"">2022-05-11T20:31:51Z</DateUtc></StartTime><FrequencyChanges><FrequencyChange><Frequency dt:dt=""r8"">3020371</Frequency><Timestamp dt:dt=""r8"">598641600637</Timestamp><Current dt:dt=""r8"">0</Current><DateUtc dt:dt=""string"">2022-05-11T20:31:51Z</DateUtc></FrequencyChange></FrequencyChanges></Clock>\n"	000_R01_VA_allProc-130-1	60.001	1.0.0.229	1	1641759171	Professional	2.0.10.356	2.0.10.356	05-11-2022	5/11/2022 8:31:51 PM	16:31:51	2.0.10.252	3	0.0	0.0	524902.0	22.0	524902.0	4000.0	-999999.0	756934.0	0.0	684900.0	0.0	Run4Proc	3	1	3	RunList	5.0	LowSmallED	8000.0	0.0	650900.0	0.0	650900.0	0.0	650900.0	0.0	D4LowSmallEDBlockProc	n/a	n/a	n/a	n/a	n/a	n/a	5.0	1.0	5.0	n/a	n/a	n/a	Run4BlockList	4.0	n/a	n/a	n/a	n/a	n/a	n/a	n/a	n/a	n/a	n/a	n/a	n/a	n/a	n/a	n/a	n/a	n/a	n/a	n/a	n/a	n/a	n/a	n/a	n/a	n/a	n/a	n/a	n/a	n/a	n/a	n/a	n/a	n/a	n/a	n/a	n/a	n/a	n/a	n/a	n/a	n/a	n/a	4.0	1.0	4.0	n/a	n/a	n/a	n/a	n/a	n/a	n/a	n/a	n/a	n/a	n/a	n/a	n/a	n/a	n/a	n/a	n/a	n/a	n/a	n/a	n/a	n/a	n/a	n/a	n/a	n/a	n/a	D4_04.jpg	500.0	1.0	644401.0	0.0	644400.0	0.0	TrialProc1	D4LowSmallEDBlockList	2500.0	1.0	641901.0	1.0	641901.0	0.0	641900.0	2500.0	d	556.0	642456.0	116.998
120	2.5	000_R01_VA_allProc	130	1	"<?xml version=""1.0""?>\n<Clock xmlns:dt=""urn:schemas-microsoft-com:datatypes""><Description dt:dt=""string"">E-Prime Primary Realtime Clock</Description><StartTime><Timestamp dt:dt=""int"">0</Timestamp><DateUtc dt:dt=""string"">2022-05-11T20:31:51Z</DateUtc></StartTime><FrequencyChanges><FrequencyChange><Frequency dt:dt=""r8"">3020371</Frequency><Timestamp dt:dt=""r8"">598641600637</Timestamp><Current dt:dt=""r8"">0</Current><DateUtc dt:dt=""string"">2022-05-11T20:31:51Z</DateUtc></FrequencyChange></FrequencyChanges></Clock>\n"	000_R01_VA_allProc-130-1	60.001	1.0.0.229	1	1641759171	Professional	2.0.10.356	2.0.10.356	05-11-2022	5/11/2022 8:31:51 PM	16:31:51	2.0.10.252	3	0.0	0.0	524902.0	22.0	524902.0	4000.0	-999999.0	756934.0	0.0	684900.0	0.0	Run4Proc	3	1	3	RunList	5.0	LowSmallED	8000.0	0.0	650900.0	0.0	650900.0	0.0	650900.0	0.0	D4LowSmallEDBlockProc	n/a	n/a	n/a	n/a	n/a	n/a	5.0	1.0	5.0	n/a	n/a	n/a	Run4BlockList	5.0	n/a	n/a	n/a	n/a	n/a	n/a	n/a	n/a	n/a	n/a	n/a	n/a	n/a	n/a	n/a	n/a	n/a	n/a	n/a	n/a	n/a	n/a	n/a	n/a	n/a	n/a	n/a	n/a	n/a	n/a	n/a	n/a	n/a	n/a	n/a	n/a	n/a	n/a	n/a	n/a	n/a	n/a	5.0	1.0	5.0	n/a	n/a	n/a	n/a	n/a	n/a	n/a	n/a	n/a	n/a	n/a	n/a	n/a	n/a	n/a	n/a	n/a	n/a	n/a	n/a	n/a	n/a	n/a	n/a	n/a	n/a	n/a	D4_05.jpg	500.0	0.0	647400.0	0.0	647400.0	0.0	TrialProc1	D4LowSmallEDBlockList	2500.0	1.0	644901.0	1.0	644901.0	0.0	644900.0	2500.0	d	756.0	645656.0	119.998
123	2.5	000_R01_VA_allProc	130	1	"<?xml version=""1.0""?>\n<Clock xmlns:dt=""urn:schemas-microsoft-com:datatypes""><Description dt:dt=""string"">E-Prime Primary Realtime Clock</Description><StartTime><Timestamp dt:dt=""int"">0</Timestamp><DateUtc dt:dt=""string"">2022-05-11T20:31:51Z</DateUtc></StartTime><FrequencyChanges><FrequencyChange><Frequency dt:dt=""r8"">3020371</Frequency><Timestamp dt:dt=""r8"">598641600637</Timestamp><Current dt:dt=""r8"">0</Current><DateUtc dt:dt=""string"">2022-05-11T20:31:51Z</DateUtc></FrequencyChange></FrequencyChanges></Clock>\n"	000_R01_VA_allProc-130-1	60.001	1.0.0.229	1	1641759171	Professional	2.0.10.356	2.0.10.356	05-11-2022	5/11/2022 8:31:51 PM	16:31:51	2.0.10.252	3	0.0	0.0	524902.0	22.0	524902.0	4000.0	-999999.0	756934.0	0.0	684900.0	0.0	Run4Proc	3	1	3	RunList	5.0	LowSmallED	8000.0	0.0	650900.0	0.0	650900.0	0.0	650900.0	0.0	D4LowSmallEDBlockProc	n/a	n/a	n/a	n/a	n/a	n/a	5.0	1.0	5.0	n/a	n/a	n/a	Run4BlockList	6.0	n/a	n/a	n/a	n/a	n/a	n/a	n/a	n/a	n/a	n/a	n/a	n/a	n/a	n/a	n/a	n/a	n/a	n/a	n/a	n/a	n/a	n/a	n/a	n/a	n/a	n/a	n/a	n/a	n/a	n/a	n/a	n/a	n/a	n/a	n/a	n/a	n/a	n/a	n/a	n/a	n/a	n/a	6.0	1.0	6.0	n/a	n/a	n/a	n/a	n/a	n/a	n/a	n/a	n/a	n/a	n/a	n/a	n/a	n/a	n/a	n/a	n/a	n/a	n/a	n/a	n/a	n/a	n/a	n/a	n/a	n/a	n/a	D4_06.jpg	500.0	0.0	650400.0	0.0	650400.0	0.0	TrialProc1	D4LowSmallEDBlockList	2500.0	0.0	647900.0	0.0	647900.0	0.0	647900.0	2500.0	d	500.0	648400.0	122.998
134	2.5	000_R01_VA_allProc	130	1	"<?xml version=""1.0""?>\n<Clock xmlns:dt=""urn:schemas-microsoft-com:datatypes""><Description dt:dt=""string"">E-Prime Primary Realtime Clock</Description><StartTime><Timestamp dt:dt=""int"">0</Timestamp><DateUtc dt:dt=""string"">2022-05-11T20:31:51Z</DateUtc></StartTime><FrequencyChanges><FrequencyChange><Frequency dt:dt=""r8"">3020371</Frequency><Timestamp dt:dt=""r8"">598641600637</Timestamp><Current dt:dt=""r8"">0</Current><DateUtc dt:dt=""string"">2022-05-11T20:31:51Z</DateUtc></FrequencyChange></FrequencyChanges></Clock>\n"	000_R01_VA_allProc-130-1	60.001	1.0.0.229	1	1641759171	Professional	2.0.10.356	2.0.10.356	05-11-2022	5/11/2022 8:31:51 PM	16:31:51	2.0.10.252	3	0.0	0.0	524902.0	22.0	524902.0	4000.0	-999999.0	756934.0	0.0	684900.0	0.0	Run4Proc	3	1	3	RunList	6.0	HighLargeED	8000.0	0.0	676900.0	0.0	676900.0	0.0	676900.0	0.0	A4HighLargeEDBlockProc	n/a	n/a	n/a	n/a	n/a	n/a	6.0	1.0	6.0	n/a	n/a	n/a	Run4BlockList	1.0	n/a	n/a	n/a	n/a	n/a	n/a	1.0	1.0	1.0	n/a	n/a	n/a	n/a	n/a	n/a	n/a	n/a	n/a	n/a	n/a	n/a	n/a	n/a	n/a	n/a	n/a	n/a	n/a	n/a	n/a	n/a	n/a	n/a	n/a	n/a	n/a	n/a	n/a	n/a	n/a	n/a	n/a	n/a	n/a	n/a	n/a	n/a	n/a	n/a	n/a	n/a	n/a	n/a	n/a	n/a	n/a	n/a	n/a	n/a	n/a	n/a	n/a	n/a	n/a	n/a	n/a	n/a	n/a	n/a	n/a	n/a	n/a	A4_01.jpg	500.0	0.0	661400.0	0.0	661400.0	0.0	TrialProc1	A4HighLargeEDBlockList	2500.0	0.0	658900.0	0.0	658900.0	0.0	658900.0	2500.0	d	828.0	659728.0	133.998
137	2.5	000_R01_VA_allProc	130	1	"<?xml version=""1.0""?>\n<Clock xmlns:dt=""urn:schemas-microsoft-com:datatypes""><Description dt:dt=""string"">E-Prime Primary Realtime Clock</Description><StartTime><Timestamp dt:dt=""int"">0</Timestamp><DateUtc dt:dt=""string"">2022-05-11T20:31:51Z</DateUtc></StartTime><FrequencyChanges><FrequencyChange><Frequency dt:dt=""r8"">3020371</Frequency><Timestamp dt:dt=""r8"">598641600637</Timestamp><Current dt:dt=""r8"">0</Current><DateUtc dt:dt=""string"">2022-05-11T20:31:51Z</DateUtc></FrequencyChange></FrequencyChanges></Clock>\n"	000_R01_VA_allProc-130-1	60.001	1.0.0.229	1	1641759171	Professional	2.0.10.356	2.0.10.356	05-11-2022	5/11/2022 8:31:51 PM	16:31:51	2.0.10.252	3	0.0	0.0	524902.0	22.0	524902.0	4000.0	-999999.0	756934.0	0.0	684900.0	0.0	Run4Proc	3	1	3	RunList	6.0	HighLargeED	8000.0	0.0	676900.0	0.0	676900.0	0.0	676900.0	0.0	A4HighLargeEDBlockProc	n/a	n/a	n/a	n/a	n/a	n/a	6.0	1.0	6.0	n/a	n/a	n/a	Run4BlockList	2.0	n/a	n/a	n/a	n/a	n/a	n/a	2.0	1.0	2.0	n/a	n/a	n/a	n/a	n/a	n/a	n/a	n/a	n/a	n/a	n/a	n/a	n/a	n/a	n/a	n/a	n/a	n/a	n/a	n/a	n/a	n/a	n/a	n/a	n/a	n/a	n/a	n/a	n/a	n/a	n/a	n/a	n/a	n/a	n/a	n/a	n/a	n/a	n/a	n/a	n/a	n/a	n/a	n/a	n/a	n/a	n/a	n/a	n/a	n/a	n/a	n/a	n/a	n/a	n/a	n/a	n/a	n/a	n/a	n/a	n/a	n/a	n/a	A4_02.jpg	500.0	0.0	664400.0	0.0	664400.0	0.0	TrialProc1	A4HighLargeEDBlockList	2500.0	0.0	661900.0	0.0	661900.0	0.0	661900.0	2500.0	d	724.0	662624.0	136.998
140	2.5	000_R01_VA_allProc	130	1	"<?xml version=""1.0""?>\n<Clock xmlns:dt=""urn:schemas-microsoft-com:datatypes""><Description dt:dt=""string"">E-Prime Primary Realtime Clock</Description><StartTime><Timestamp dt:dt=""int"">0</Timestamp><DateUtc dt:dt=""string"">2022-05-11T20:31:51Z</DateUtc></StartTime><FrequencyChanges><FrequencyChange><Frequency dt:dt=""r8"">3020371</Frequency><Timestamp dt:dt=""r8"">598641600637</Timestamp><Current dt:dt=""r8"">0</Current><DateUtc dt:dt=""string"">2022-05-11T20:31:51Z</DateUtc></FrequencyChange></FrequencyChanges></Clock>\n"	000_R01_VA_allProc-130-1	60.001	1.0.0.229	1	1641759171	Professional	2.0.10.356	2.0.10.356	05-11-2022	5/11/2022 8:31:51 PM	16:31:51	2.0.10.252	3	0.0	0.0	524902.0	22.0	524902.0	4000.0	-999999.0	756934.0	0.0	684900.0	0.0	Run4Proc	3	1	3	RunList	6.0	HighLargeED	8000.0	0.0	676900.0	0.0	676900.0	0.0	676900.0	0.0	A4HighLargeEDBlockProc	n/a	n/a	n/a	n/a	n/a	n/a	6.0	1.0	6.0	n/a	n/a	n/a	Run4BlockList	3.0	n/a	n/a	n/a	n/a	n/a	n/a	3.0	1.0	3.0	n/a	n/a	n/a	n/a	n/a	n/a	n/a	n/a	n/a	n/a	n/a	n/a	n/a	n/a	n/a	n/a	n/a	n/a	n/a	n/a	n/a	n/a	n/a	n/a	n/a	n/a	n/a	n/a	n/a	n/a	n/a	n/a	n/a	n/a	n/a	n/a	n/a	n/a	n/a	n/a	n/a	n/a	n/a	n/a	n/a	n/a	n/a	n/a	n/a	n/a	n/a	n/a	n/a	n/a	n/a	n/a	n/a	n/a	n/a	n/a	n/a	n/a	n/a	A4_03.jpg	500.0	0.0	667400.0	0.0	667400.0	0.0	TrialProc1	A4HighLargeEDBlockList	2500.0	0.0	664900.0	0.0	664900.0	0.0	664900.0	2500.0	d	508.0	665408.0	139.998
143	2.5	000_R01_VA_allProc	130	1	"<?xml version=""1.0""?>\n<Clock xmlns:dt=""urn:schemas-microsoft-com:datatypes""><Description dt:dt=""string"">E-Prime Primary Realtime Clock</Description><StartTime><Timestamp dt:dt=""int"">0</Timestamp><DateUtc dt:dt=""string"">2022-05-11T20:31:51Z</DateUtc></StartTime><FrequencyChanges><FrequencyChange><Frequency dt:dt=""r8"">3020371</Frequency><Timestamp dt:dt=""r8"">598641600637</Timestamp><Current dt:dt=""r8"">0</Current><DateUtc dt:dt=""string"">2022-05-11T20:31:51Z</DateUtc></FrequencyChange></FrequencyChanges></Clock>\n"	000_R01_VA_allProc-130-1	60.001	1.0.0.229	1	1641759171	Professional	2.0.10.356	2.0.10.356	05-11-2022	5/11/2022 8:31:51 PM	16:31:51	2.0.10.252	3	0.0	0.0	524902.0	22.0	524902.0	4000.0	-999999.0	756934.0	0.0	684900.0	0.0	Run4Proc	3	1	3	RunList	6.0	HighLargeED	8000.0	0.0	676900.0	0.0	676900.0	0.0	676900.0	0.0	A4HighLargeEDBlockProc	n/a	n/a	n/a	n/a	n/a	n/a	6.0	1.0	6.0	n/a	n/a	n/a	Run4BlockList	4.0	n/a	n/a	n/a	n/a	n/a	n/a	4.0	1.0	4.0	n/a	n/a	n/a	n/a	n/a	n/a	n/a	n/a	n/a	n/a	n/a	n/a	n/a	n/a	n/a	n/a	n/a	n/a	n/a	n/a	n/a	n/a	n/a	n/a	n/a	n/a	n/a	n/a	n/a	n/a	n/a	n/a	n/a	n/a	n/a	n/a	n/a	n/a	n/a	n/a	n/a	n/a	n/a	n/a	n/a	n/a	n/a	n/a	n/a	n/a	n/a	n/a	n/a	n/a	n/a	n/a	n/a	n/a	n/a	n/a	n/a	n/a	n/a	A4_04.jpg	500.0	0.0	670400.0	0.0	670400.0	0.0	TrialProc1	A4HighLargeEDBlockList	2500.0	0.0	667900.0	0.0	667900.0	0.0	667900.0	2500.0	n/a	0.0	0.0	142.998
146	2.5	000_R01_VA_allProc	130	1	"<?xml version=""1.0""?>\n<Clock xmlns:dt=""urn:schemas-microsoft-com:datatypes""><Description dt:dt=""string"">E-Prime Primary Realtime Clock</Description><StartTime><Timestamp dt:dt=""int"">0</Timestamp><DateUtc dt:dt=""string"">2022-05-11T20:31:51Z</DateUtc></StartTime><FrequencyChanges><FrequencyChange><Frequency dt:dt=""r8"">3020371</Frequency><Timestamp dt:dt=""r8"">598641600637</Timestamp><Current dt:dt=""r8"">0</Current><DateUtc dt:dt=""string"">2022-05-11T20:31:51Z</DateUtc></FrequencyChange></FrequencyChanges></Clock>\n"	000_R01_VA_allProc-130-1	60.001	1.0.0.229	1	1641759171	Professional	2.0.10.356	2.0.10.356	05-11-2022	5/11/2022 8:31:51 PM	16:31:51	2.0.10.252	3	0.0	0.0	524902.0	22.0	524902.0	4000.0	-999999.0	756934.0	0.0	684900.0	0.0	Run4Proc	3	1	3	RunList	6.0	HighLargeED	8000.0	0.0	676900.0	0.0	676900.0	0.0	676900.0	0.0	A4HighLargeEDBlockProc	n/a	n/a	n/a	n/a	n/a	n/a	6.0	1.0	6.0	n/a	n/a	n/a	Run4BlockList	5.0	n/a	n/a	n/a	n/a	n/a	n/a	5.0	1.0	5.0	n/a	n/a	n/a	n/a	n/a	n/a	n/a	n/a	n/a	n/a	n/a	n/a	n/a	n/a	n/a	n/a	n/a	n/a	n/a	n/a	n/a	n/a	n/a	n/a	n/a	n/a	n/a	n/a	n/a	n/a	n/a	n/a	n/a	n/a	n/a	n/a	n/a	n/a	n/a	n/a	n/a	n/a	n/a	n/a	n/a	n/a	n/a	n/a	n/a	n/a	n/a	n/a	n/a	n/a	n/a	n/a	n/a	n/a	n/a	n/a	n/a	n/a	n/a	A4_05.jpg	500.0	0.0	673400.0	0.0	673400.0	0.0	TrialProc1	A4HighLargeEDBlockList	2500.0	0.0	670900.0	0.0	670900.0	0.0	670900.0	2500.0	n/a	0.0	0.0	145.998
149	2.5	000_R01_VA_allProc	130	1	"<?xml version=""1.0""?>\n<Clock xmlns:dt=""urn:schemas-microsoft-com:datatypes""><Description dt:dt=""string"">E-Prime Primary Realtime Clock</Description><StartTime><Timestamp dt:dt=""int"">0</Timestamp><DateUtc dt:dt=""string"">2022-05-11T20:31:51Z</DateUtc></StartTime><FrequencyChanges><FrequencyChange><Frequency dt:dt=""r8"">3020371</Frequency><Timestamp dt:dt=""r8"">598641600637</Timestamp><Current dt:dt=""r8"">0</Current><DateUtc dt:dt=""string"">2022-05-11T20:31:51Z</DateUtc></FrequencyChange></FrequencyChanges></Clock>\n"	000_R01_VA_allProc-130-1	60.001	1.0.0.229	1	1641759171	Professional	2.0.10.356	2.0.10.356	05-11-2022	5/11/2022 8:31:51 PM	16:31:51	2.0.10.252	3	0.0	0.0	524902.0	22.0	524902.0	4000.0	-999999.0	756934.0	0.0	684900.0	0.0	Run4Proc	3	1	3	RunList	6.0	HighLargeED	8000.0	0.0	676900.0	0.0	676900.0	0.0	676900.0	0.0	A4HighLargeEDBlockProc	n/a	n/a	n/a	n/a	n/a	n/a	6.0	1.0	6.0	n/a	n/a	n/a	Run4BlockList	6.0	n/a	n/a	n/a	n/a	n/a	n/a	6.0	1.0	6.0	n/a	n/a	n/a	n/a	n/a	n/a	n/a	n/a	n/a	n/a	n/a	n/a	n/a	n/a	n/a	n/a	n/a	n/a	n/a	n/a	n/a	n/a	n/a	n/a	n/a	n/a	n/a	n/a	n/a	n/a	n/a	n/a	n/a	n/a	n/a	n/a	n/a	n/a	n/a	n/a	n/a	n/a	n/a	n/a	n/a	n/a	n/a	n/a	n/a	n/a	n/a	n/a	n/a	n/a	n/a	n/a	n/a	n/a	n/a	n/a	n/a	n/a	n/a	A4_06.jpg	500.0	0.0	676400.0	0.0	676400.0	0.0	TrialProc1	A4HighLargeEDBlockList	2500.0	0.0	673900.0	0.0	673900.0	0.0	673900.0	2500.0	n/a	0.0	0.0	148.998
