onset	duration	experiment_name	sub	ses	clock_information	datafile_basename	display_refreshrate	experiment_version	group	randomseed	runtime_capabilities	runtime_version	runtimeversionexpected	session_date	session_start_date_time_utc	session_time	studio_version	block	fixation2trs_durationerror	fixation2trs_offsetdelay	fixation2trs_offsettime	fixation2trs_onsetdelay	fixation2trs_onsettime	fixation2trs_onsettoonsettime	goodwork_durationerror	goodwork_finishtime	goodwork_onsetdelay	goodwork_onsettime	goodwork_onsettoonsettime	procedure_block	runlist	runlist_cycle	runlist_sample	running_block	trial	condition	interblockinterval_duration	interblockinterval_durationerror	interblockinterval_finishtime	interblockinterval_offsetdelay	interblockinterval_offsettime	interblockinterval_onsetdelay	interblockinterval_onsettime	interblockinterval_onsettoonsettime	procedure_trial	run1blocklist	run1blocklist_cycle	run1blocklist_sample	run3blocklist	run3blocklist_cycle	run3blocklist_sample	run4blocklist	run4blocklist_cycle	run4blocklist_sample	run5blocklist	run5blocklist_cycle	run5blocklist_sample	running_trial	subtrial	a1highlargeedblocklist	a1highlargeedblocklist_cycle	a1highlargeedblocklist_sample	a3highlargeedblocklist	a3highlargeedblocklist_cycle	a3highlargeedblocklist_sample	a4highlargeedblocklist	a4highlargeedblocklist_cycle	a4highlargeedblocklist_sample	a5highlargeedblocklist	a5highlargeedblocklist_cycle	a5highlargeedblocklist_sample	b1highsmalledblocklist	b1highsmalledblocklist_cycle	b1highsmalledblocklist_sample	b3highsmalledblocklist	b3highsmalledblocklist_cycle	b3highsmalledblocklist_sample	b4highsmalledblocklist	b4highsmalledblocklist_cycle	b4highsmalledblocklist_sample	b5highsmalledblocklist	b5highsmalledblocklist_cycle	b5highsmalledblocklist_sample	c1lowlargeedblocklist	c1lowlargeedblocklist_cycle	c1lowlargeedblocklist_sample	c3lowlargeedblocklist	c3lowlargeedblocklist_cycle	c3lowlargeedblocklist_sample	c4lowlargeedblocklist	c4lowlargeedblocklist_cycle	c4lowlargeedblocklist_sample	c5lowlargeedblocklist	c5lowlargeedblocklist_cycle	c5lowlargeedblocklist_sample	d1lowsmalledblocklist	d1lowsmalledblocklist_cycle	d1lowsmalledblocklist_sample	d3lowsmalledblocklist	d3lowsmalledblocklist_cycle	d3lowsmalledblocklist_sample	d4lowsmalledblocklist	d4lowsmalledblocklist_cycle	d4lowsmalledblocklist_sample	d5lowsmalledblocklist	d5lowsmalledblocklist_cycle	d5lowsmalledblocklist_sample	e1officelargeblocklist	e1officelargeblocklist_cycle	e1officelargeblocklist_sample	e3officelargeblocklist	e3officelargeblocklist_cycle	e3officelargeblocklist_sample	e4officelargeblocklist	e4officelargeblocklist_cycle	e4officelargeblocklist_sample	e5officelargeblocklist	e5officelargeblocklist_cycle	e5officelargeblocklist_sample	f1officesmallblocklist	f1officesmallblocklist_cycle	f1officesmallblocklist_sample	f3officesmallblocklist	f3officesmallblocklist_cycle	f3officesmallblocklist_sample	f4officesmallblocklist	f4officesmallblocklist_cycle	f4officesmallblocklist_sample	f5officesmallblocklist	f5officesmallblocklist_cycle	f5officesmallblocklist_sample	filename	isi_duration	isi_durationerror	isi_finishtime	isi_onsetdelay	isi_onsettime	isi_onsettoonsettime	procedure_subtrial	running_subtrial	stimslide_duration	stimslide_durationerror	stimslide_finishtime	stimslide_offsetdelay	stimslide_offsettime	stimslide_onsetdelay	stimslide_onsettime	stimslide_onsettoonsettime	stimslide_resp	stimslide_rt	stimslide_rttime	onset_unrounded
4	2.5	000_R01_VA_allProc	130	1	"<?xml version=""1.0""?>\n<Clock xmlns:dt=""urn:schemas-microsoft-com:datatypes""><Description dt:dt=""string"">E-Prime Primary Realtime Clock</Description><StartTime><Timestamp dt:dt=""int"">0</Timestamp><DateUtc dt:dt=""string"">2022-05-11T20:31:51Z</DateUtc></StartTime><FrequencyChanges><FrequencyChange><Frequency dt:dt=""r8"">3020371</Frequency><Timestamp dt:dt=""r8"">598641600637</Timestamp><Current dt:dt=""r8"">0</Current><DateUtc dt:dt=""string"">2022-05-11T20:31:51Z</DateUtc></FrequencyChange></FrequencyChanges></Clock>\n"	000_R01_VA_allProc-130-1	60.001	1.0.0.229	1	1641759171	Professional	2.0.10.356	2.0.10.356	05-11-2022	5/11/2022 8:31:51 PM	16:31:51	2.0.10.252	4	0.0	0.0	762183.0	13.0	762183.0	4000.0	-999999.0	962309.0	0.0	922181.0	0.0	Run5Proc	4	1	4	RunList	1.0	LowLargeED	8000.0	0.0	784183.0	0.0	784183.0	0.0	784183.0	0.0	C5LowLargeEDBlockProc	n/a	n/a	n/a	n/a	n/a	n/a	n/a	n/a	n/a	1.0	1.0	1.0	Run5BlockList	1.0	n/a	n/a	n/a	n/a	n/a	n/a	n/a	n/a	n/a	n/a	n/a	n/a	n/a	n/a	n/a	n/a	n/a	n/a	n/a	n/a	n/a	n/a	n/a	n/a	n/a	n/a	n/a	n/a	n/a	n/a	n/a	n/a	n/a	1.0	1.0	1.0	n/a	n/a	n/a	n/a	n/a	n/a	n/a	n/a	n/a	n/a	n/a	n/a	n/a	n/a	n/a	n/a	n/a	n/a	n/a	n/a	n/a	n/a	n/a	n/a	n/a	n/a	n/a	n/a	n/a	n/a	n/a	n/a	n/a	n/a	n/a	n/a	C5_01.jpg	500.0	0.0	768683.0	0.0	768683.0	0.0	TrialProc1	C5LowLargeEDBlockList	2500.0	0.0	766183.0	0.0	766183.0	0.0	766183.0	2500.0	d	736.0	766919.0	4.0
7	2.5	000_R01_VA_allProc	130	1	"<?xml version=""1.0""?>\n<Clock xmlns:dt=""urn:schemas-microsoft-com:datatypes""><Description dt:dt=""string"">E-Prime Primary Realtime Clock</Description><StartTime><Timestamp dt:dt=""int"">0</Timestamp><DateUtc dt:dt=""string"">2022-05-11T20:31:51Z</DateUtc></StartTime><FrequencyChanges><FrequencyChange><Frequency dt:dt=""r8"">3020371</Frequency><Timestamp dt:dt=""r8"">598641600637</Timestamp><Current dt:dt=""r8"">0</Current><DateUtc dt:dt=""string"">2022-05-11T20:31:51Z</DateUtc></FrequencyChange></FrequencyChanges></Clock>\n"	000_R01_VA_allProc-130-1	60.001	1.0.0.229	1	1641759171	Professional	2.0.10.356	2.0.10.356	05-11-2022	5/11/2022 8:31:51 PM	16:31:51	2.0.10.252	4	0.0	0.0	762183.0	13.0	762183.0	4000.0	-999999.0	962309.0	0.0	922181.0	0.0	Run5Proc	4	1	4	RunList	1.0	LowLargeED	8000.0	0.0	784183.0	0.0	784183.0	0.0	784183.0	0.0	C5LowLargeEDBlockProc	n/a	n/a	n/a	n/a	n/a	n/a	n/a	n/a	n/a	1.0	1.0	1.0	Run5BlockList	2.0	n/a	n/a	n/a	n/a	n/a	n/a	n/a	n/a	n/a	n/a	n/a	n/a	n/a	n/a	n/a	n/a	n/a	n/a	n/a	n/a	n/a	n/a	n/a	n/a	n/a	n/a	n/a	n/a	n/a	n/a	n/a	n/a	n/a	2.0	1.0	2.0	n/a	n/a	n/a	n/a	n/a	n/a	n/a	n/a	n/a	n/a	n/a	n/a	n/a	n/a	n/a	n/a	n/a	n/a	n/a	n/a	n/a	n/a	n/a	n/a	n/a	n/a	n/a	n/a	n/a	n/a	n/a	n/a	n/a	n/a	n/a	n/a	C5_02.jpg	500.0	0.0	771683.0	0.0	771683.0	0.0	TrialProc1	C5LowLargeEDBlockList	2500.0	0.0	769183.0	0.0	769183.0	0.0	769183.0	2500.0	d	560.0	769743.0	7.0
10	2.5	000_R01_VA_allProc	130	1	"<?xml version=""1.0""?>\n<Clock xmlns:dt=""urn:schemas-microsoft-com:datatypes""><Description dt:dt=""string"">E-Prime Primary Realtime Clock</Description><StartTime><Timestamp dt:dt=""int"">0</Timestamp><DateUtc dt:dt=""string"">2022-05-11T20:31:51Z</DateUtc></StartTime><FrequencyChanges><FrequencyChange><Frequency dt:dt=""r8"">3020371</Frequency><Timestamp dt:dt=""r8"">598641600637</Timestamp><Current dt:dt=""r8"">0</Current><DateUtc dt:dt=""string"">2022-05-11T20:31:51Z</DateUtc></FrequencyChange></FrequencyChanges></Clock>\n"	000_R01_VA_allProc-130-1	60.001	1.0.0.229	1	1641759171	Professional	2.0.10.356	2.0.10.356	05-11-2022	5/11/2022 8:31:51 PM	16:31:51	2.0.10.252	4	0.0	0.0	762183.0	13.0	762183.0	4000.0	-999999.0	962309.0	0.0	922181.0	0.0	Run5Proc	4	1	4	RunList	1.0	LowLargeED	8000.0	0.0	784183.0	0.0	784183.0	0.0	784183.0	0.0	C5LowLargeEDBlockProc	n/a	n/a	n/a	n/a	n/a	n/a	n/a	n/a	n/a	1.0	1.0	1.0	Run5BlockList	3.0	n/a	n/a	n/a	n/a	n/a	n/a	n/a	n/a	n/a	n/a	n/a	n/a	n/a	n/a	n/a	n/a	n/a	n/a	n/a	n/a	n/a	n/a	n/a	n/a	n/a	n/a	n/a	n/a	n/a	n/a	n/a	n/a	n/a	3.0	1.0	3.0	n/a	n/a	n/a	n/a	n/a	n/a	n/a	n/a	n/a	n/a	n/a	n/a	n/a	n/a	n/a	n/a	n/a	n/a	n/a	n/a	n/a	n/a	n/a	n/a	n/a	n/a	n/a	n/a	n/a	n/a	n/a	n/a	n/a	n/a	n/a	n/a	C5_03.jpg	500.0	0.0	774683.0	0.0	774683.0	0.0	TrialProc1	C5LowLargeEDBlockList	2500.0	0.0	772183.0	0.0	772183.0	0.0	772183.0	2500.0	d	416.0	772599.0	10.0
13	2.5	000_R01_VA_allProc	130	1	"<?xml version=""1.0""?>\n<Clock xmlns:dt=""urn:schemas-microsoft-com:datatypes""><Description dt:dt=""string"">E-Prime Primary Realtime Clock</Description><StartTime><Timestamp dt:dt=""int"">0</Timestamp><DateUtc dt:dt=""string"">2022-05-11T20:31:51Z</DateUtc></StartTime><FrequencyChanges><FrequencyChange><Frequency dt:dt=""r8"">3020371</Frequency><Timestamp dt:dt=""r8"">598641600637</Timestamp><Current dt:dt=""r8"">0</Current><DateUtc dt:dt=""string"">2022-05-11T20:31:51Z</DateUtc></FrequencyChange></FrequencyChanges></Clock>\n"	000_R01_VA_allProc-130-1	60.001	1.0.0.229	1	1641759171	Professional	2.0.10.356	2.0.10.356	05-11-2022	5/11/2022 8:31:51 PM	16:31:51	2.0.10.252	4	0.0	0.0	762183.0	13.0	762183.0	4000.0	-999999.0	962309.0	0.0	922181.0	0.0	Run5Proc	4	1	4	RunList	1.0	LowLargeED	8000.0	0.0	784183.0	0.0	784183.0	0.0	784183.0	0.0	C5LowLargeEDBlockProc	n/a	n/a	n/a	n/a	n/a	n/a	n/a	n/a	n/a	1.0	1.0	1.0	Run5BlockList	4.0	n/a	n/a	n/a	n/a	n/a	n/a	n/a	n/a	n/a	n/a	n/a	n/a	n/a	n/a	n/a	n/a	n/a	n/a	n/a	n/a	n/a	n/a	n/a	n/a	n/a	n/a	n/a	n/a	n/a	n/a	n/a	n/a	n/a	4.0	1.0	4.0	n/a	n/a	n/a	n/a	n/a	n/a	n/a	n/a	n/a	n/a	n/a	n/a	n/a	n/a	n/a	n/a	n/a	n/a	n/a	n/a	n/a	n/a	n/a	n/a	n/a	n/a	n/a	n/a	n/a	n/a	n/a	n/a	n/a	n/a	n/a	n/a	C5_04.jpg	500.0	0.0	777683.0	0.0	777683.0	0.0	TrialProc1	C5LowLargeEDBlockList	2500.0	0.0	775183.0	0.0	775183.0	0.0	775183.0	2500.0	d	544.0	775727.0	13.0
16	2.5	000_R01_VA_allProc	130	1	"<?xml version=""1.0""?>\n<Clock xmlns:dt=""urn:schemas-microsoft-com:datatypes""><Description dt:dt=""string"">E-Prime Primary Realtime Clock</Description><StartTime><Timestamp dt:dt=""int"">0</Timestamp><DateUtc dt:dt=""string"">2022-05-11T20:31:51Z</DateUtc></StartTime><FrequencyChanges><FrequencyChange><Frequency dt:dt=""r8"">3020371</Frequency><Timestamp dt:dt=""r8"">598641600637</Timestamp><Current dt:dt=""r8"">0</Current><DateUtc dt:dt=""string"">2022-05-11T20:31:51Z</DateUtc></FrequencyChange></FrequencyChanges></Clock>\n"	000_R01_VA_allProc-130-1	60.001	1.0.0.229	1	1641759171	Professional	2.0.10.356	2.0.10.356	05-11-2022	5/11/2022 8:31:51 PM	16:31:51	2.0.10.252	4	0.0	0.0	762183.0	13.0	762183.0	4000.0	-999999.0	962309.0	0.0	922181.0	0.0	Run5Proc	4	1	4	RunList	1.0	LowLargeED	8000.0	0.0	784183.0	0.0	784183.0	0.0	784183.0	0.0	C5LowLargeEDBlockProc	n/a	n/a	n/a	n/a	n/a	n/a	n/a	n/a	n/a	1.0	1.0	1.0	Run5BlockList	5.0	n/a	n/a	n/a	n/a	n/a	n/a	n/a	n/a	n/a	n/a	n/a	n/a	n/a	n/a	n/a	n/a	n/a	n/a	n/a	n/a	n/a	n/a	n/a	n/a	n/a	n/a	n/a	n/a	n/a	n/a	n/a	n/a	n/a	5.0	1.0	5.0	n/a	n/a	n/a	n/a	n/a	n/a	n/a	n/a	n/a	n/a	n/a	n/a	n/a	n/a	n/a	n/a	n/a	n/a	n/a	n/a	n/a	n/a	n/a	n/a	n/a	n/a	n/a	n/a	n/a	n/a	n/a	n/a	n/a	n/a	n/a	n/a	C5_05.jpg	500.0	0.0	780683.0	0.0	780683.0	0.0	TrialProc1	C5LowLargeEDBlockList	2500.0	0.0	778183.0	0.0	778183.0	0.0	778183.0	2500.0	d	360.0	778543.0	16.0
19	2.5	000_R01_VA_allProc	130	1	"<?xml version=""1.0""?>\n<Clock xmlns:dt=""urn:schemas-microsoft-com:datatypes""><Description dt:dt=""string"">E-Prime Primary Realtime Clock</Description><StartTime><Timestamp dt:dt=""int"">0</Timestamp><DateUtc dt:dt=""string"">2022-05-11T20:31:51Z</DateUtc></StartTime><FrequencyChanges><FrequencyChange><Frequency dt:dt=""r8"">3020371</Frequency><Timestamp dt:dt=""r8"">598641600637</Timestamp><Current dt:dt=""r8"">0</Current><DateUtc dt:dt=""string"">2022-05-11T20:31:51Z</DateUtc></FrequencyChange></FrequencyChanges></Clock>\n"	000_R01_VA_allProc-130-1	60.001	1.0.0.229	1	1641759171	Professional	2.0.10.356	2.0.10.356	05-11-2022	5/11/2022 8:31:51 PM	16:31:51	2.0.10.252	4	0.0	0.0	762183.0	13.0	762183.0	4000.0	-999999.0	962309.0	0.0	922181.0	0.0	Run5Proc	4	1	4	RunList	1.0	LowLargeED	8000.0	0.0	784183.0	0.0	784183.0	0.0	784183.0	0.0	C5LowLargeEDBlockProc	n/a	n/a	n/a	n/a	n/a	n/a	n/a	n/a	n/a	1.0	1.0	1.0	Run5BlockList	6.0	n/a	n/a	n/a	n/a	n/a	n/a	n/a	n/a	n/a	n/a	n/a	n/a	n/a	n/a	n/a	n/a	n/a	n/a	n/a	n/a	n/a	n/a	n/a	n/a	n/a	n/a	n/a	n/a	n/a	n/a	n/a	n/a	n/a	6.0	1.0	6.0	n/a	n/a	n/a	n/a	n/a	n/a	n/a	n/a	n/a	n/a	n/a	n/a	n/a	n/a	n/a	n/a	n/a	n/a	n/a	n/a	n/a	n/a	n/a	n/a	n/a	n/a	n/a	n/a	n/a	n/a	n/a	n/a	n/a	n/a	n/a	n/a	C5_06.jpg	500.0	0.0	783683.0	0.0	783683.0	0.0	TrialProc1	C5LowLargeEDBlockList	2500.0	0.0	781183.0	0.0	781183.0	0.0	781183.0	2500.0	n/a	0.0	0.0	19.0
30	2.5	000_R01_VA_allProc	130	1	"<?xml version=""1.0""?>\n<Clock xmlns:dt=""urn:schemas-microsoft-com:datatypes""><Description dt:dt=""string"">E-Prime Primary Realtime Clock</Description><StartTime><Timestamp dt:dt=""int"">0</Timestamp><DateUtc dt:dt=""string"">2022-05-11T20:31:51Z</DateUtc></StartTime><FrequencyChanges><FrequencyChange><Frequency dt:dt=""r8"">3020371</Frequency><Timestamp dt:dt=""r8"">598641600637</Timestamp><Current dt:dt=""r8"">0</Current><DateUtc dt:dt=""string"">2022-05-11T20:31:51Z</DateUtc></FrequencyChange></FrequencyChanges></Clock>\n"	000_R01_VA_allProc-130-1	60.001	1.0.0.229	1	1641759171	Professional	2.0.10.356	2.0.10.356	05-11-2022	5/11/2022 8:31:51 PM	16:31:51	2.0.10.252	4	0.0	0.0	762183.0	13.0	762183.0	4000.0	-999999.0	962309.0	0.0	922181.0	0.0	Run5Proc	4	1	4	RunList	2.0	OfficeSmall	8000.0	0.0	810182.0	0.0	810182.0	0.0	810182.0	0.0	F5OfficeSmallBlockProc	n/a	n/a	n/a	n/a	n/a	n/a	n/a	n/a	n/a	2.0	1.0	2.0	Run5BlockList	1.0	n/a	n/a	n/a	n/a	n/a	n/a	n/a	n/a	n/a	n/a	n/a	n/a	n/a	n/a	n/a	n/a	n/a	n/a	n/a	n/a	n/a	n/a	n/a	n/a	n/a	n/a	n/a	n/a	n/a	n/a	n/a	n/a	n/a	n/a	n/a	n/a	n/a	n/a	n/a	n/a	n/a	n/a	n/a	n/a	n/a	n/a	n/a	n/a	n/a	n/a	n/a	n/a	n/a	n/a	n/a	n/a	n/a	n/a	n/a	n/a	n/a	n/a	n/a	n/a	n/a	n/a	n/a	n/a	n/a	1.0	1.0	1.0	F5_01.jpg	500.0	1.0	794683.0	0.0	794682.0	0.0	TrialProc1	F5OfficeSmallBlockList	2500.0	1.0	792183.0	1.0	792183.0	-1.0	792182.0	2500.0	d	1033.0	793215.0	29.999
33	2.5	000_R01_VA_allProc	130	1	"<?xml version=""1.0""?>\n<Clock xmlns:dt=""urn:schemas-microsoft-com:datatypes""><Description dt:dt=""string"">E-Prime Primary Realtime Clock</Description><StartTime><Timestamp dt:dt=""int"">0</Timestamp><DateUtc dt:dt=""string"">2022-05-11T20:31:51Z</DateUtc></StartTime><FrequencyChanges><FrequencyChange><Frequency dt:dt=""r8"">3020371</Frequency><Timestamp dt:dt=""r8"">598641600637</Timestamp><Current dt:dt=""r8"">0</Current><DateUtc dt:dt=""string"">2022-05-11T20:31:51Z</DateUtc></FrequencyChange></FrequencyChanges></Clock>\n"	000_R01_VA_allProc-130-1	60.001	1.0.0.229	1	1641759171	Professional	2.0.10.356	2.0.10.356	05-11-2022	5/11/2022 8:31:51 PM	16:31:51	2.0.10.252	4	0.0	0.0	762183.0	13.0	762183.0	4000.0	-999999.0	962309.0	0.0	922181.0	0.0	Run5Proc	4	1	4	RunList	2.0	OfficeSmall	8000.0	0.0	810182.0	0.0	810182.0	0.0	810182.0	0.0	F5OfficeSmallBlockProc	n/a	n/a	n/a	n/a	n/a	n/a	n/a	n/a	n/a	2.0	1.0	2.0	Run5BlockList	2.0	n/a	n/a	n/a	n/a	n/a	n/a	n/a	n/a	n/a	n/a	n/a	n/a	n/a	n/a	n/a	n/a	n/a	n/a	n/a	n/a	n/a	n/a	n/a	n/a	n/a	n/a	n/a	n/a	n/a	n/a	n/a	n/a	n/a	n/a	n/a	n/a	n/a	n/a	n/a	n/a	n/a	n/a	n/a	n/a	n/a	n/a	n/a	n/a	n/a	n/a	n/a	n/a	n/a	n/a	n/a	n/a	n/a	n/a	n/a	n/a	n/a	n/a	n/a	n/a	n/a	n/a	n/a	n/a	n/a	2.0	1.0	2.0	F5_02.jpg	500.0	0.0	797682.0	0.0	797682.0	0.0	TrialProc1	F5OfficeSmallBlockList	2500.0	0.0	795183.0	0.0	795182.0	0.0	795182.0	2500.0	d	529.0	795711.0	32.998999999999995
36	2.5	000_R01_VA_allProc	130	1	"<?xml version=""1.0""?>\n<Clock xmlns:dt=""urn:schemas-microsoft-com:datatypes""><Description dt:dt=""string"">E-Prime Primary Realtime Clock</Description><StartTime><Timestamp dt:dt=""int"">0</Timestamp><DateUtc dt:dt=""string"">2022-05-11T20:31:51Z</DateUtc></StartTime><FrequencyChanges><FrequencyChange><Frequency dt:dt=""r8"">3020371</Frequency><Timestamp dt:dt=""r8"">598641600637</Timestamp><Current dt:dt=""r8"">0</Current><DateUtc dt:dt=""string"">2022-05-11T20:31:51Z</DateUtc></FrequencyChange></FrequencyChanges></Clock>\n"	000_R01_VA_allProc-130-1	60.001	1.0.0.229	1	1641759171	Professional	2.0.10.356	2.0.10.356	05-11-2022	5/11/2022 8:31:51 PM	16:31:51	2.0.10.252	4	0.0	0.0	762183.0	13.0	762183.0	4000.0	-999999.0	962309.0	0.0	922181.0	0.0	Run5Proc	4	1	4	RunList	2.0	OfficeSmall	8000.0	0.0	810182.0	0.0	810182.0	0.0	810182.0	0.0	F5OfficeSmallBlockProc	n/a	n/a	n/a	n/a	n/a	n/a	n/a	n/a	n/a	2.0	1.0	2.0	Run5BlockList	3.0	n/a	n/a	n/a	n/a	n/a	n/a	n/a	n/a	n/a	n/a	n/a	n/a	n/a	n/a	n/a	n/a	n/a	n/a	n/a	n/a	n/a	n/a	n/a	n/a	n/a	n/a	n/a	n/a	n/a	n/a	n/a	n/a	n/a	n/a	n/a	n/a	n/a	n/a	n/a	n/a	n/a	n/a	n/a	n/a	n/a	n/a	n/a	n/a	n/a	n/a	n/a	n/a	n/a	n/a	n/a	n/a	n/a	n/a	n/a	n/a	n/a	n/a	n/a	n/a	n/a	n/a	n/a	n/a	n/a	3.0	1.0	3.0	F5_03.jpg	500.0	0.0	800682.0	0.0	800682.0	0.0	TrialProc1	F5OfficeSmallBlockList	2500.0	0.0	798182.0	0.0	798182.0	0.0	798182.0	2500.0	d	393.0	798575.0	35.998999999999995
39	2.5	000_R01_VA_allProc	130	1	"<?xml version=""1.0""?>\n<Clock xmlns:dt=""urn:schemas-microsoft-com:datatypes""><Description dt:dt=""string"">E-Prime Primary Realtime Clock</Description><StartTime><Timestamp dt:dt=""int"">0</Timestamp><DateUtc dt:dt=""string"">2022-05-11T20:31:51Z</DateUtc></StartTime><FrequencyChanges><FrequencyChange><Frequency dt:dt=""r8"">3020371</Frequency><Timestamp dt:dt=""r8"">598641600637</Timestamp><Current dt:dt=""r8"">0</Current><DateUtc dt:dt=""string"">2022-05-11T20:31:51Z</DateUtc></FrequencyChange></FrequencyChanges></Clock>\n"	000_R01_VA_allProc-130-1	60.001	1.0.0.229	1	1641759171	Professional	2.0.10.356	2.0.10.356	05-11-2022	5/11/2022 8:31:51 PM	16:31:51	2.0.10.252	4	0.0	0.0	762183.0	13.0	762183.0	4000.0	-999999.0	962309.0	0.0	922181.0	0.0	Run5Proc	4	1	4	RunList	2.0	OfficeSmall	8000.0	0.0	810182.0	0.0	810182.0	0.0	810182.0	0.0	F5OfficeSmallBlockProc	n/a	n/a	n/a	n/a	n/a	n/a	n/a	n/a	n/a	2.0	1.0	2.0	Run5BlockList	4.0	n/a	n/a	n/a	n/a	n/a	n/a	n/a	n/a	n/a	n/a	n/a	n/a	n/a	n/a	n/a	n/a	n/a	n/a	n/a	n/a	n/a	n/a	n/a	n/a	n/a	n/a	n/a	n/a	n/a	n/a	n/a	n/a	n/a	n/a	n/a	n/a	n/a	n/a	n/a	n/a	n/a	n/a	n/a	n/a	n/a	n/a	n/a	n/a	n/a	n/a	n/a	n/a	n/a	n/a	n/a	n/a	n/a	n/a	n/a	n/a	n/a	n/a	n/a	n/a	n/a	n/a	n/a	n/a	n/a	4.0	1.0	4.0	F5_04.jpg	500.0	0.0	803682.0	0.0	803682.0	0.0	TrialProc1	F5OfficeSmallBlockList	2500.0	0.0	801182.0	0.0	801182.0	0.0	801182.0	2500.0	d	609.0	801791.0	38.999
42	2.5	000_R01_VA_allProc	130	1	"<?xml version=""1.0""?>\n<Clock xmlns:dt=""urn:schemas-microsoft-com:datatypes""><Description dt:dt=""string"">E-Prime Primary Realtime Clock</Description><StartTime><Timestamp dt:dt=""int"">0</Timestamp><DateUtc dt:dt=""string"">2022-05-11T20:31:51Z</DateUtc></StartTime><FrequencyChanges><FrequencyChange><Frequency dt:dt=""r8"">3020371</Frequency><Timestamp dt:dt=""r8"">598641600637</Timestamp><Current dt:dt=""r8"">0</Current><DateUtc dt:dt=""string"">2022-05-11T20:31:51Z</DateUtc></FrequencyChange></FrequencyChanges></Clock>\n"	000_R01_VA_allProc-130-1	60.001	1.0.0.229	1	1641759171	Professional	2.0.10.356	2.0.10.356	05-11-2022	5/11/2022 8:31:51 PM	16:31:51	2.0.10.252	4	0.0	0.0	762183.0	13.0	762183.0	4000.0	-999999.0	962309.0	0.0	922181.0	0.0	Run5Proc	4	1	4	RunList	2.0	OfficeSmall	8000.0	0.0	810182.0	0.0	810182.0	0.0	810182.0	0.0	F5OfficeSmallBlockProc	n/a	n/a	n/a	n/a	n/a	n/a	n/a	n/a	n/a	2.0	1.0	2.0	Run5BlockList	5.0	n/a	n/a	n/a	n/a	n/a	n/a	n/a	n/a	n/a	n/a	n/a	n/a	n/a	n/a	n/a	n/a	n/a	n/a	n/a	n/a	n/a	n/a	n/a	n/a	n/a	n/a	n/a	n/a	n/a	n/a	n/a	n/a	n/a	n/a	n/a	n/a	n/a	n/a	n/a	n/a	n/a	n/a	n/a	n/a	n/a	n/a	n/a	n/a	n/a	n/a	n/a	n/a	n/a	n/a	n/a	n/a	n/a	n/a	n/a	n/a	n/a	n/a	n/a	n/a	n/a	n/a	n/a	n/a	n/a	5.0	1.0	5.0	F5_05.jpg	500.0	0.0	806682.0	0.0	806682.0	0.0	TrialProc1	F5OfficeSmallBlockList	2500.0	0.0	804182.0	0.0	804182.0	0.0	804182.0	2500.0	d	425.0	804607.0	41.999
45	2.5	000_R01_VA_allProc	130	1	"<?xml version=""1.0""?>\n<Clock xmlns:dt=""urn:schemas-microsoft-com:datatypes""><Description dt:dt=""string"">E-Prime Primary Realtime Clock</Description><StartTime><Timestamp dt:dt=""int"">0</Timestamp><DateUtc dt:dt=""string"">2022-05-11T20:31:51Z</DateUtc></StartTime><FrequencyChanges><FrequencyChange><Frequency dt:dt=""r8"">3020371</Frequency><Timestamp dt:dt=""r8"">598641600637</Timestamp><Current dt:dt=""r8"">0</Current><DateUtc dt:dt=""string"">2022-05-11T20:31:51Z</DateUtc></FrequencyChange></FrequencyChanges></Clock>\n"	000_R01_VA_allProc-130-1	60.001	1.0.0.229	1	1641759171	Professional	2.0.10.356	2.0.10.356	05-11-2022	5/11/2022 8:31:51 PM	16:31:51	2.0.10.252	4	0.0	0.0	762183.0	13.0	762183.0	4000.0	-999999.0	962309.0	0.0	922181.0	0.0	Run5Proc	4	1	4	RunList	2.0	OfficeSmall	8000.0	0.0	810182.0	0.0	810182.0	0.0	810182.0	0.0	F5OfficeSmallBlockProc	n/a	n/a	n/a	n/a	n/a	n/a	n/a	n/a	n/a	2.0	1.0	2.0	Run5BlockList	6.0	n/a	n/a	n/a	n/a	n/a	n/a	n/a	n/a	n/a	n/a	n/a	n/a	n/a	n/a	n/a	n/a	n/a	n/a	n/a	n/a	n/a	n/a	n/a	n/a	n/a	n/a	n/a	n/a	n/a	n/a	n/a	n/a	n/a	n/a	n/a	n/a	n/a	n/a	n/a	n/a	n/a	n/a	n/a	n/a	n/a	n/a	n/a	n/a	n/a	n/a	n/a	n/a	n/a	n/a	n/a	n/a	n/a	n/a	n/a	n/a	n/a	n/a	n/a	n/a	n/a	n/a	n/a	n/a	n/a	6.0	1.0	6.0	F5_06.jpg	500.0	0.0	809682.0	0.0	809682.0	0.0	TrialProc1	F5OfficeSmallBlockList	2500.0	0.0	807182.0	0.0	807182.0	0.0	807182.0	2500.0	d	737.0	807919.0	44.999
56	2.5	000_R01_VA_allProc	130	1	"<?xml version=""1.0""?>\n<Clock xmlns:dt=""urn:schemas-microsoft-com:datatypes""><Description dt:dt=""string"">E-Prime Primary Realtime Clock</Description><StartTime><Timestamp dt:dt=""int"">0</Timestamp><DateUtc dt:dt=""string"">2022-05-11T20:31:51Z</DateUtc></StartTime><FrequencyChanges><FrequencyChange><Frequency dt:dt=""r8"">3020371</Frequency><Timestamp dt:dt=""r8"">598641600637</Timestamp><Current dt:dt=""r8"">0</Current><DateUtc dt:dt=""string"">2022-05-11T20:31:51Z</DateUtc></FrequencyChange></FrequencyChanges></Clock>\n"	000_R01_VA_allProc-130-1	60.001	1.0.0.229	1	1641759171	Professional	2.0.10.356	2.0.10.356	05-11-2022	5/11/2022 8:31:51 PM	16:31:51	2.0.10.252	4	0.0	0.0	762183.0	13.0	762183.0	4000.0	-999999.0	962309.0	0.0	922181.0	0.0	Run5Proc	4	1	4	RunList	3.0	HighSmallED	8000.0	0.0	836182.0	0.0	836182.0	0.0	836182.0	0.0	B5HighSmallEDBlockProc	n/a	n/a	n/a	n/a	n/a	n/a	n/a	n/a	n/a	3.0	1.0	3.0	Run5BlockList	1.0	n/a	n/a	n/a	n/a	n/a	n/a	n/a	n/a	n/a	n/a	n/a	n/a	n/a	n/a	n/a	n/a	n/a	n/a	n/a	n/a	n/a	1.0	1.0	1.0	n/a	n/a	n/a	n/a	n/a	n/a	n/a	n/a	n/a	n/a	n/a	n/a	n/a	n/a	n/a	n/a	n/a	n/a	n/a	n/a	n/a	n/a	n/a	n/a	n/a	n/a	n/a	n/a	n/a	n/a	n/a	n/a	n/a	n/a	n/a	n/a	n/a	n/a	n/a	n/a	n/a	n/a	n/a	n/a	n/a	n/a	n/a	n/a	B5_01.jpg	500.0	0.0	820682.0	0.0	820682.0	0.0	TrialProc1	B5HighSmallEDBlockList	2500.0	0.0	818182.0	0.0	818182.0	0.0	818182.0	2500.0	d	825.0	819007.0	55.999
59	2.5	000_R01_VA_allProc	130	1	"<?xml version=""1.0""?>\n<Clock xmlns:dt=""urn:schemas-microsoft-com:datatypes""><Description dt:dt=""string"">E-Prime Primary Realtime Clock</Description><StartTime><Timestamp dt:dt=""int"">0</Timestamp><DateUtc dt:dt=""string"">2022-05-11T20:31:51Z</DateUtc></StartTime><FrequencyChanges><FrequencyChange><Frequency dt:dt=""r8"">3020371</Frequency><Timestamp dt:dt=""r8"">598641600637</Timestamp><Current dt:dt=""r8"">0</Current><DateUtc dt:dt=""string"">2022-05-11T20:31:51Z</DateUtc></FrequencyChange></FrequencyChanges></Clock>\n"	000_R01_VA_allProc-130-1	60.001	1.0.0.229	1	1641759171	Professional	2.0.10.356	2.0.10.356	05-11-2022	5/11/2022 8:31:51 PM	16:31:51	2.0.10.252	4	0.0	0.0	762183.0	13.0	762183.0	4000.0	-999999.0	962309.0	0.0	922181.0	0.0	Run5Proc	4	1	4	RunList	3.0	HighSmallED	8000.0	0.0	836182.0	0.0	836182.0	0.0	836182.0	0.0	B5HighSmallEDBlockProc	n/a	n/a	n/a	n/a	n/a	n/a	n/a	n/a	n/a	3.0	1.0	3.0	Run5BlockList	2.0	n/a	n/a	n/a	n/a	n/a	n/a	n/a	n/a	n/a	n/a	n/a	n/a	n/a	n/a	n/a	n/a	n/a	n/a	n/a	n/a	n/a	2.0	1.0	2.0	n/a	n/a	n/a	n/a	n/a	n/a	n/a	n/a	n/a	n/a	n/a	n/a	n/a	n/a	n/a	n/a	n/a	n/a	n/a	n/a	n/a	n/a	n/a	n/a	n/a	n/a	n/a	n/a	n/a	n/a	n/a	n/a	n/a	n/a	n/a	n/a	n/a	n/a	n/a	n/a	n/a	n/a	n/a	n/a	n/a	n/a	n/a	n/a	B5_02.jpg	500.0	0.0	823682.0	0.0	823682.0	0.0	TrialProc1	B5HighSmallEDBlockList	2500.0	0.0	821182.0	0.0	821182.0	0.0	821182.0	2500.0	d	513.0	821695.0	58.999
62	2.5	000_R01_VA_allProc	130	1	"<?xml version=""1.0""?>\n<Clock xmlns:dt=""urn:schemas-microsoft-com:datatypes""><Description dt:dt=""string"">E-Prime Primary Realtime Clock</Description><StartTime><Timestamp dt:dt=""int"">0</Timestamp><DateUtc dt:dt=""string"">2022-05-11T20:31:51Z</DateUtc></StartTime><FrequencyChanges><FrequencyChange><Frequency dt:dt=""r8"">3020371</Frequency><Timestamp dt:dt=""r8"">598641600637</Timestamp><Current dt:dt=""r8"">0</Current><DateUtc dt:dt=""string"">2022-05-11T20:31:51Z</DateUtc></FrequencyChange></FrequencyChanges></Clock>\n"	000_R01_VA_allProc-130-1	60.001	1.0.0.229	1	1641759171	Professional	2.0.10.356	2.0.10.356	05-11-2022	5/11/2022 8:31:51 PM	16:31:51	2.0.10.252	4	0.0	0.0	762183.0	13.0	762183.0	4000.0	-999999.0	962309.0	0.0	922181.0	0.0	Run5Proc	4	1	4	RunList	3.0	HighSmallED	8000.0	0.0	836182.0	0.0	836182.0	0.0	836182.0	0.0	B5HighSmallEDBlockProc	n/a	n/a	n/a	n/a	n/a	n/a	n/a	n/a	n/a	3.0	1.0	3.0	Run5BlockList	3.0	n/a	n/a	n/a	n/a	n/a	n/a	n/a	n/a	n/a	n/a	n/a	n/a	n/a	n/a	n/a	n/a	n/a	n/a	n/a	n/a	n/a	3.0	1.0	3.0	n/a	n/a	n/a	n/a	n/a	n/a	n/a	n/a	n/a	n/a	n/a	n/a	n/a	n/a	n/a	n/a	n/a	n/a	n/a	n/a	n/a	n/a	n/a	n/a	n/a	n/a	n/a	n/a	n/a	n/a	n/a	n/a	n/a	n/a	n/a	n/a	n/a	n/a	n/a	n/a	n/a	n/a	n/a	n/a	n/a	n/a	n/a	n/a	B5_03.jpg	500.0	0.0	826682.0	0.0	826682.0	0.0	TrialProc1	B5HighSmallEDBlockList	2500.0	0.0	824182.0	0.0	824182.0	0.0	824182.0	2500.0	d	513.0	824695.0	61.999
65	2.5	000_R01_VA_allProc	130	1	"<?xml version=""1.0""?>\n<Clock xmlns:dt=""urn:schemas-microsoft-com:datatypes""><Description dt:dt=""string"">E-Prime Primary Realtime Clock</Description><StartTime><Timestamp dt:dt=""int"">0</Timestamp><DateUtc dt:dt=""string"">2022-05-11T20:31:51Z</DateUtc></StartTime><FrequencyChanges><FrequencyChange><Frequency dt:dt=""r8"">3020371</Frequency><Timestamp dt:dt=""r8"">598641600637</Timestamp><Current dt:dt=""r8"">0</Current><DateUtc dt:dt=""string"">2022-05-11T20:31:51Z</DateUtc></FrequencyChange></FrequencyChanges></Clock>\n"	000_R01_VA_allProc-130-1	60.001	1.0.0.229	1	1641759171	Professional	2.0.10.356	2.0.10.356	05-11-2022	5/11/2022 8:31:51 PM	16:31:51	2.0.10.252	4	0.0	0.0	762183.0	13.0	762183.0	4000.0	-999999.0	962309.0	0.0	922181.0	0.0	Run5Proc	4	1	4	RunList	3.0	HighSmallED	8000.0	0.0	836182.0	0.0	836182.0	0.0	836182.0	0.0	B5HighSmallEDBlockProc	n/a	n/a	n/a	n/a	n/a	n/a	n/a	n/a	n/a	3.0	1.0	3.0	Run5BlockList	4.0	n/a	n/a	n/a	n/a	n/a	n/a	n/a	n/a	n/a	n/a	n/a	n/a	n/a	n/a	n/a	n/a	n/a	n/a	n/a	n/a	n/a	4.0	1.0	4.0	n/a	n/a	n/a	n/a	n/a	n/a	n/a	n/a	n/a	n/a	n/a	n/a	n/a	n/a	n/a	n/a	n/a	n/a	n/a	n/a	n/a	n/a	n/a	n/a	n/a	n/a	n/a	n/a	n/a	n/a	n/a	n/a	n/a	n/a	n/a	n/a	n/a	n/a	n/a	n/a	n/a	n/a	n/a	n/a	n/a	n/a	n/a	n/a	B5_04.jpg	500.0	0.0	829682.0	0.0	829682.0	0.0	TrialProc1	B5HighSmallEDBlockList	2500.0	0.0	827182.0	0.0	827182.0	0.0	827182.0	2500.0	d	697.0	827879.0	64.999
68	2.5	000_R01_VA_allProc	130	1	"<?xml version=""1.0""?>\n<Clock xmlns:dt=""urn:schemas-microsoft-com:datatypes""><Description dt:dt=""string"">E-Prime Primary Realtime Clock</Description><StartTime><Timestamp dt:dt=""int"">0</Timestamp><DateUtc dt:dt=""string"">2022-05-11T20:31:51Z</DateUtc></StartTime><FrequencyChanges><FrequencyChange><Frequency dt:dt=""r8"">3020371</Frequency><Timestamp dt:dt=""r8"">598641600637</Timestamp><Current dt:dt=""r8"">0</Current><DateUtc dt:dt=""string"">2022-05-11T20:31:51Z</DateUtc></FrequencyChange></FrequencyChanges></Clock>\n"	000_R01_VA_allProc-130-1	60.001	1.0.0.229	1	1641759171	Professional	2.0.10.356	2.0.10.356	05-11-2022	5/11/2022 8:31:51 PM	16:31:51	2.0.10.252	4	0.0	0.0	762183.0	13.0	762183.0	4000.0	-999999.0	962309.0	0.0	922181.0	0.0	Run5Proc	4	1	4	RunList	3.0	HighSmallED	8000.0	0.0	836182.0	0.0	836182.0	0.0	836182.0	0.0	B5HighSmallEDBlockProc	n/a	n/a	n/a	n/a	n/a	n/a	n/a	n/a	n/a	3.0	1.0	3.0	Run5BlockList	5.0	n/a	n/a	n/a	n/a	n/a	n/a	n/a	n/a	n/a	n/a	n/a	n/a	n/a	n/a	n/a	n/a	n/a	n/a	n/a	n/a	n/a	5.0	1.0	5.0	n/a	n/a	n/a	n/a	n/a	n/a	n/a	n/a	n/a	n/a	n/a	n/a	n/a	n/a	n/a	n/a	n/a	n/a	n/a	n/a	n/a	n/a	n/a	n/a	n/a	n/a	n/a	n/a	n/a	n/a	n/a	n/a	n/a	n/a	n/a	n/a	n/a	n/a	n/a	n/a	n/a	n/a	n/a	n/a	n/a	n/a	n/a	n/a	B5_05.jpg	500.0	0.0	832682.0	0.0	832682.0	0.0	TrialProc1	B5HighSmallEDBlockList	2500.0	0.0	830182.0	0.0	830182.0	0.0	830182.0	2500.0	d	497.0	830679.0	67.999
71	2.5	000_R01_VA_allProc	130	1	"<?xml version=""1.0""?>\n<Clock xmlns:dt=""urn:schemas-microsoft-com:datatypes""><Description dt:dt=""string"">E-Prime Primary Realtime Clock</Description><StartTime><Timestamp dt:dt=""int"">0</Timestamp><DateUtc dt:dt=""string"">2022-05-11T20:31:51Z</DateUtc></StartTime><FrequencyChanges><FrequencyChange><Frequency dt:dt=""r8"">3020371</Frequency><Timestamp dt:dt=""r8"">598641600637</Timestamp><Current dt:dt=""r8"">0</Current><DateUtc dt:dt=""string"">2022-05-11T20:31:51Z</DateUtc></FrequencyChange></FrequencyChanges></Clock>\n"	000_R01_VA_allProc-130-1	60.001	1.0.0.229	1	1641759171	Professional	2.0.10.356	2.0.10.356	05-11-2022	5/11/2022 8:31:51 PM	16:31:51	2.0.10.252	4	0.0	0.0	762183.0	13.0	762183.0	4000.0	-999999.0	962309.0	0.0	922181.0	0.0	Run5Proc	4	1	4	RunList	3.0	HighSmallED	8000.0	0.0	836182.0	0.0	836182.0	0.0	836182.0	0.0	B5HighSmallEDBlockProc	n/a	n/a	n/a	n/a	n/a	n/a	n/a	n/a	n/a	3.0	1.0	3.0	Run5BlockList	6.0	n/a	n/a	n/a	n/a	n/a	n/a	n/a	n/a	n/a	n/a	n/a	n/a	n/a	n/a	n/a	n/a	n/a	n/a	n/a	n/a	n/a	6.0	1.0	6.0	n/a	n/a	n/a	n/a	n/a	n/a	n/a	n/a	n/a	n/a	n/a	n/a	n/a	n/a	n/a	n/a	n/a	n/a	n/a	n/a	n/a	n/a	n/a	n/a	n/a	n/a	n/a	n/a	n/a	n/a	n/a	n/a	n/a	n/a	n/a	n/a	n/a	n/a	n/a	n/a	n/a	n/a	n/a	n/a	n/a	n/a	n/a	n/a	B5_06.jpg	500.0	0.0	835682.0	0.0	835682.0	0.0	TrialProc1	B5HighSmallEDBlockList	2500.0	0.0	833182.0	0.0	833182.0	0.0	833182.0	2500.0	d	545.0	833727.0	70.999
82	2.5	000_R01_VA_allProc	130	1	"<?xml version=""1.0""?>\n<Clock xmlns:dt=""urn:schemas-microsoft-com:datatypes""><Description dt:dt=""string"">E-Prime Primary Realtime Clock</Description><StartTime><Timestamp dt:dt=""int"">0</Timestamp><DateUtc dt:dt=""string"">2022-05-11T20:31:51Z</DateUtc></StartTime><FrequencyChanges><FrequencyChange><Frequency dt:dt=""r8"">3020371</Frequency><Timestamp dt:dt=""r8"">598641600637</Timestamp><Current dt:dt=""r8"">0</Current><DateUtc dt:dt=""string"">2022-05-11T20:31:51Z</DateUtc></FrequencyChange></FrequencyChanges></Clock>\n"	000_R01_VA_allProc-130-1	60.001	1.0.0.229	1	1641759171	Professional	2.0.10.356	2.0.10.356	05-11-2022	5/11/2022 8:31:51 PM	16:31:51	2.0.10.252	4	0.0	0.0	762183.0	13.0	762183.0	4000.0	-999999.0	962309.0	0.0	922181.0	0.0	Run5Proc	4	1	4	RunList	4.0	OfficeLarge	8000.0	0.0	862182.0	0.0	862182.0	0.0	862182.0	0.0	E5OfficeLargeBlockProc	n/a	n/a	n/a	n/a	n/a	n/a	n/a	n/a	n/a	4.0	1.0	4.0	Run5BlockList	1.0	n/a	n/a	n/a	n/a	n/a	n/a	n/a	n/a	n/a	n/a	n/a	n/a	n/a	n/a	n/a	n/a	n/a	n/a	n/a	n/a	n/a	n/a	n/a	n/a	n/a	n/a	n/a	n/a	n/a	n/a	n/a	n/a	n/a	n/a	n/a	n/a	n/a	n/a	n/a	n/a	n/a	n/a	n/a	n/a	n/a	n/a	n/a	n/a	n/a	n/a	n/a	n/a	n/a	n/a	n/a	n/a	n/a	1.0	1.0	1.0	n/a	n/a	n/a	n/a	n/a	n/a	n/a	n/a	n/a	n/a	n/a	n/a	E5_01.jpg	500.0	0.0	846682.0	0.0	846682.0	0.0	TrialProc1	E5OfficeLargeBlockList	2500.0	0.0	844182.0	0.0	844182.0	0.0	844182.0	2500.0	d	657.0	844839.0	81.999
85	2.5	000_R01_VA_allProc	130	1	"<?xml version=""1.0""?>\n<Clock xmlns:dt=""urn:schemas-microsoft-com:datatypes""><Description dt:dt=""string"">E-Prime Primary Realtime Clock</Description><StartTime><Timestamp dt:dt=""int"">0</Timestamp><DateUtc dt:dt=""string"">2022-05-11T20:31:51Z</DateUtc></StartTime><FrequencyChanges><FrequencyChange><Frequency dt:dt=""r8"">3020371</Frequency><Timestamp dt:dt=""r8"">598641600637</Timestamp><Current dt:dt=""r8"">0</Current><DateUtc dt:dt=""string"">2022-05-11T20:31:51Z</DateUtc></FrequencyChange></FrequencyChanges></Clock>\n"	000_R01_VA_allProc-130-1	60.001	1.0.0.229	1	1641759171	Professional	2.0.10.356	2.0.10.356	05-11-2022	5/11/2022 8:31:51 PM	16:31:51	2.0.10.252	4	0.0	0.0	762183.0	13.0	762183.0	4000.0	-999999.0	962309.0	0.0	922181.0	0.0	Run5Proc	4	1	4	RunList	4.0	OfficeLarge	8000.0	0.0	862182.0	0.0	862182.0	0.0	862182.0	0.0	E5OfficeLargeBlockProc	n/a	n/a	n/a	n/a	n/a	n/a	n/a	n/a	n/a	4.0	1.0	4.0	Run5BlockList	2.0	n/a	n/a	n/a	n/a	n/a	n/a	n/a	n/a	n/a	n/a	n/a	n/a	n/a	n/a	n/a	n/a	n/a	n/a	n/a	n/a	n/a	n/a	n/a	n/a	n/a	n/a	n/a	n/a	n/a	n/a	n/a	n/a	n/a	n/a	n/a	n/a	n/a	n/a	n/a	n/a	n/a	n/a	n/a	n/a	n/a	n/a	n/a	n/a	n/a	n/a	n/a	n/a	n/a	n/a	n/a	n/a	n/a	2.0	1.0	2.0	n/a	n/a	n/a	n/a	n/a	n/a	n/a	n/a	n/a	n/a	n/a	n/a	E5_02.jpg	500.0	0.0	849682.0	0.0	849682.0	0.0	TrialProc1	E5OfficeLargeBlockList	2500.0	0.0	847182.0	0.0	847182.0	0.0	847182.0	2500.0	d	745.0	847927.0	84.999
88	2.5	000_R01_VA_allProc	130	1	"<?xml version=""1.0""?>\n<Clock xmlns:dt=""urn:schemas-microsoft-com:datatypes""><Description dt:dt=""string"">E-Prime Primary Realtime Clock</Description><StartTime><Timestamp dt:dt=""int"">0</Timestamp><DateUtc dt:dt=""string"">2022-05-11T20:31:51Z</DateUtc></StartTime><FrequencyChanges><FrequencyChange><Frequency dt:dt=""r8"">3020371</Frequency><Timestamp dt:dt=""r8"">598641600637</Timestamp><Current dt:dt=""r8"">0</Current><DateUtc dt:dt=""string"">2022-05-11T20:31:51Z</DateUtc></FrequencyChange></FrequencyChanges></Clock>\n"	000_R01_VA_allProc-130-1	60.001	1.0.0.229	1	1641759171	Professional	2.0.10.356	2.0.10.356	05-11-2022	5/11/2022 8:31:51 PM	16:31:51	2.0.10.252	4	0.0	0.0	762183.0	13.0	762183.0	4000.0	-999999.0	962309.0	0.0	922181.0	0.0	Run5Proc	4	1	4	RunList	4.0	OfficeLarge	8000.0	0.0	862182.0	0.0	862182.0	0.0	862182.0	0.0	E5OfficeLargeBlockProc	n/a	n/a	n/a	n/a	n/a	n/a	n/a	n/a	n/a	4.0	1.0	4.0	Run5BlockList	3.0	n/a	n/a	n/a	n/a	n/a	n/a	n/a	n/a	n/a	n/a	n/a	n/a	n/a	n/a	n/a	n/a	n/a	n/a	n/a	n/a	n/a	n/a	n/a	n/a	n/a	n/a	n/a	n/a	n/a	n/a	n/a	n/a	n/a	n/a	n/a	n/a	n/a	n/a	n/a	n/a	n/a	n/a	n/a	n/a	n/a	n/a	n/a	n/a	n/a	n/a	n/a	n/a	n/a	n/a	n/a	n/a	n/a	3.0	1.0	3.0	n/a	n/a	n/a	n/a	n/a	n/a	n/a	n/a	n/a	n/a	n/a	n/a	E5_03.jpg	500.0	0.0	852682.0	0.0	852682.0	0.0	TrialProc1	E5OfficeLargeBlockList	2500.0	0.0	850182.0	0.0	850182.0	0.0	850182.0	2500.0	d	593.0	850775.0	87.999
91	2.5	000_R01_VA_allProc	130	1	"<?xml version=""1.0""?>\n<Clock xmlns:dt=""urn:schemas-microsoft-com:datatypes""><Description dt:dt=""string"">E-Prime Primary Realtime Clock</Description><StartTime><Timestamp dt:dt=""int"">0</Timestamp><DateUtc dt:dt=""string"">2022-05-11T20:31:51Z</DateUtc></StartTime><FrequencyChanges><FrequencyChange><Frequency dt:dt=""r8"">3020371</Frequency><Timestamp dt:dt=""r8"">598641600637</Timestamp><Current dt:dt=""r8"">0</Current><DateUtc dt:dt=""string"">2022-05-11T20:31:51Z</DateUtc></FrequencyChange></FrequencyChanges></Clock>\n"	000_R01_VA_allProc-130-1	60.001	1.0.0.229	1	1641759171	Professional	2.0.10.356	2.0.10.356	05-11-2022	5/11/2022 8:31:51 PM	16:31:51	2.0.10.252	4	0.0	0.0	762183.0	13.0	762183.0	4000.0	-999999.0	962309.0	0.0	922181.0	0.0	Run5Proc	4	1	4	RunList	4.0	OfficeLarge	8000.0	0.0	862182.0	0.0	862182.0	0.0	862182.0	0.0	E5OfficeLargeBlockProc	n/a	n/a	n/a	n/a	n/a	n/a	n/a	n/a	n/a	4.0	1.0	4.0	Run5BlockList	4.0	n/a	n/a	n/a	n/a	n/a	n/a	n/a	n/a	n/a	n/a	n/a	n/a	n/a	n/a	n/a	n/a	n/a	n/a	n/a	n/a	n/a	n/a	n/a	n/a	n/a	n/a	n/a	n/a	n/a	n/a	n/a	n/a	n/a	n/a	n/a	n/a	n/a	n/a	n/a	n/a	n/a	n/a	n/a	n/a	n/a	n/a	n/a	n/a	n/a	n/a	n/a	n/a	n/a	n/a	n/a	n/a	n/a	4.0	1.0	4.0	n/a	n/a	n/a	n/a	n/a	n/a	n/a	n/a	n/a	n/a	n/a	n/a	E5_04.jpg	500.0	0.0	855682.0	0.0	855682.0	0.0	TrialProc1	E5OfficeLargeBlockList	2500.0	0.0	853182.0	0.0	853182.0	0.0	853182.0	2500.0	d	505.0	853687.0	90.999
94	2.5	000_R01_VA_allProc	130	1	"<?xml version=""1.0""?>\n<Clock xmlns:dt=""urn:schemas-microsoft-com:datatypes""><Description dt:dt=""string"">E-Prime Primary Realtime Clock</Description><StartTime><Timestamp dt:dt=""int"">0</Timestamp><DateUtc dt:dt=""string"">2022-05-11T20:31:51Z</DateUtc></StartTime><FrequencyChanges><FrequencyChange><Frequency dt:dt=""r8"">3020371</Frequency><Timestamp dt:dt=""r8"">598641600637</Timestamp><Current dt:dt=""r8"">0</Current><DateUtc dt:dt=""string"">2022-05-11T20:31:51Z</DateUtc></FrequencyChange></FrequencyChanges></Clock>\n"	000_R01_VA_allProc-130-1	60.001	1.0.0.229	1	1641759171	Professional	2.0.10.356	2.0.10.356	05-11-2022	5/11/2022 8:31:51 PM	16:31:51	2.0.10.252	4	0.0	0.0	762183.0	13.0	762183.0	4000.0	-999999.0	962309.0	0.0	922181.0	0.0	Run5Proc	4	1	4	RunList	4.0	OfficeLarge	8000.0	0.0	862182.0	0.0	862182.0	0.0	862182.0	0.0	E5OfficeLargeBlockProc	n/a	n/a	n/a	n/a	n/a	n/a	n/a	n/a	n/a	4.0	1.0	4.0	Run5BlockList	5.0	n/a	n/a	n/a	n/a	n/a	n/a	n/a	n/a	n/a	n/a	n/a	n/a	n/a	n/a	n/a	n/a	n/a	n/a	n/a	n/a	n/a	n/a	n/a	n/a	n/a	n/a	n/a	n/a	n/a	n/a	n/a	n/a	n/a	n/a	n/a	n/a	n/a	n/a	n/a	n/a	n/a	n/a	n/a	n/a	n/a	n/a	n/a	n/a	n/a	n/a	n/a	n/a	n/a	n/a	n/a	n/a	n/a	5.0	1.0	5.0	n/a	n/a	n/a	n/a	n/a	n/a	n/a	n/a	n/a	n/a	n/a	n/a	E5_05.jpg	500.0	0.0	858682.0	0.0	858682.0	0.0	TrialProc1	E5OfficeLargeBlockList	2500.0	0.0	856182.0	0.0	856182.0	0.0	856182.0	2500.0	d	457.0	856639.0	93.999
97	2.5	000_R01_VA_allProc	130	1	"<?xml version=""1.0""?>\n<Clock xmlns:dt=""urn:schemas-microsoft-com:datatypes""><Description dt:dt=""string"">E-Prime Primary Realtime Clock</Description><StartTime><Timestamp dt:dt=""int"">0</Timestamp><DateUtc dt:dt=""string"">2022-05-11T20:31:51Z</DateUtc></StartTime><FrequencyChanges><FrequencyChange><Frequency dt:dt=""r8"">3020371</Frequency><Timestamp dt:dt=""r8"">598641600637</Timestamp><Current dt:dt=""r8"">0</Current><DateUtc dt:dt=""string"">2022-05-11T20:31:51Z</DateUtc></FrequencyChange></FrequencyChanges></Clock>\n"	000_R01_VA_allProc-130-1	60.001	1.0.0.229	1	1641759171	Professional	2.0.10.356	2.0.10.356	05-11-2022	5/11/2022 8:31:51 PM	16:31:51	2.0.10.252	4	0.0	0.0	762183.0	13.0	762183.0	4000.0	-999999.0	962309.0	0.0	922181.0	0.0	Run5Proc	4	1	4	RunList	4.0	OfficeLarge	8000.0	0.0	862182.0	0.0	862182.0	0.0	862182.0	0.0	E5OfficeLargeBlockProc	n/a	n/a	n/a	n/a	n/a	n/a	n/a	n/a	n/a	4.0	1.0	4.0	Run5BlockList	6.0	n/a	n/a	n/a	n/a	n/a	n/a	n/a	n/a	n/a	n/a	n/a	n/a	n/a	n/a	n/a	n/a	n/a	n/a	n/a	n/a	n/a	n/a	n/a	n/a	n/a	n/a	n/a	n/a	n/a	n/a	n/a	n/a	n/a	n/a	n/a	n/a	n/a	n/a	n/a	n/a	n/a	n/a	n/a	n/a	n/a	n/a	n/a	n/a	n/a	n/a	n/a	n/a	n/a	n/a	n/a	n/a	n/a	6.0	1.0	6.0	n/a	n/a	n/a	n/a	n/a	n/a	n/a	n/a	n/a	n/a	n/a	n/a	E5_06.jpg	500.0	0.0	861682.0	0.0	861682.0	0.0	TrialProc1	E5OfficeLargeBlockList	2500.0	0.0	859182.0	0.0	859182.0	0.0	859182.0	2500.0	d	601.0	859783.0	96.999
108	2.5	000_R01_VA_allProc	130	1	"<?xml version=""1.0""?>\n<Clock xmlns:dt=""urn:schemas-microsoft-com:datatypes""><Description dt:dt=""string"">E-Prime Primary Realtime Clock</Description><StartTime><Timestamp dt:dt=""int"">0</Timestamp><DateUtc dt:dt=""string"">2022-05-11T20:31:51Z</DateUtc></StartTime><FrequencyChanges><FrequencyChange><Frequency dt:dt=""r8"">3020371</Frequency><Timestamp dt:dt=""r8"">598641600637</Timestamp><Current dt:dt=""r8"">0</Current><DateUtc dt:dt=""string"">2022-05-11T20:31:51Z</DateUtc></FrequencyChange></FrequencyChanges></Clock>\n"	000_R01_VA_allProc-130-1	60.001	1.0.0.229	1	1641759171	Professional	2.0.10.356	2.0.10.356	05-11-2022	5/11/2022 8:31:51 PM	16:31:51	2.0.10.252	4	0.0	0.0	762183.0	13.0	762183.0	4000.0	-999999.0	962309.0	0.0	922181.0	0.0	Run5Proc	4	1	4	RunList	5.0	HighLargeED	8000.0	0.0	888182.0	0.0	888182.0	0.0	888182.0	0.0	A5HighLargeEDBlockProc	n/a	n/a	n/a	n/a	n/a	n/a	n/a	n/a	n/a	5.0	1.0	5.0	Run5BlockList	1.0	n/a	n/a	n/a	n/a	n/a	n/a	n/a	n/a	n/a	1.0	1.0	1.0	n/a	n/a	n/a	n/a	n/a	n/a	n/a	n/a	n/a	n/a	n/a	n/a	n/a	n/a	n/a	n/a	n/a	n/a	n/a	n/a	n/a	n/a	n/a	n/a	n/a	n/a	n/a	n/a	n/a	n/a	n/a	n/a	n/a	n/a	n/a	n/a	n/a	n/a	n/a	n/a	n/a	n/a	n/a	n/a	n/a	n/a	n/a	n/a	n/a	n/a	n/a	n/a	n/a	n/a	n/a	n/a	n/a	n/a	n/a	n/a	A5_01.jpg	500.0	0.0	872682.0	0.0	872682.0	0.0	TrialProc1	A5HighLargeEDBlockList	2500.0	0.0	870182.0	0.0	870182.0	0.0	870182.0	2500.0	d	592.0	870774.0	107.999
111	2.5	000_R01_VA_allProc	130	1	"<?xml version=""1.0""?>\n<Clock xmlns:dt=""urn:schemas-microsoft-com:datatypes""><Description dt:dt=""string"">E-Prime Primary Realtime Clock</Description><StartTime><Timestamp dt:dt=""int"">0</Timestamp><DateUtc dt:dt=""string"">2022-05-11T20:31:51Z</DateUtc></StartTime><FrequencyChanges><FrequencyChange><Frequency dt:dt=""r8"">3020371</Frequency><Timestamp dt:dt=""r8"">598641600637</Timestamp><Current dt:dt=""r8"">0</Current><DateUtc dt:dt=""string"">2022-05-11T20:31:51Z</DateUtc></FrequencyChange></FrequencyChanges></Clock>\n"	000_R01_VA_allProc-130-1	60.001	1.0.0.229	1	1641759171	Professional	2.0.10.356	2.0.10.356	05-11-2022	5/11/2022 8:31:51 PM	16:31:51	2.0.10.252	4	0.0	0.0	762183.0	13.0	762183.0	4000.0	-999999.0	962309.0	0.0	922181.0	0.0	Run5Proc	4	1	4	RunList	5.0	HighLargeED	8000.0	0.0	888182.0	0.0	888182.0	0.0	888182.0	0.0	A5HighLargeEDBlockProc	n/a	n/a	n/a	n/a	n/a	n/a	n/a	n/a	n/a	5.0	1.0	5.0	Run5BlockList	2.0	n/a	n/a	n/a	n/a	n/a	n/a	n/a	n/a	n/a	2.0	1.0	2.0	n/a	n/a	n/a	n/a	n/a	n/a	n/a	n/a	n/a	n/a	n/a	n/a	n/a	n/a	n/a	n/a	n/a	n/a	n/a	n/a	n/a	n/a	n/a	n/a	n/a	n/a	n/a	n/a	n/a	n/a	n/a	n/a	n/a	n/a	n/a	n/a	n/a	n/a	n/a	n/a	n/a	n/a	n/a	n/a	n/a	n/a	n/a	n/a	n/a	n/a	n/a	n/a	n/a	n/a	n/a	n/a	n/a	n/a	n/a	n/a	A5_02.jpg	500.0	0.0	875682.0	0.0	875682.0	0.0	TrialProc1	A5HighLargeEDBlockList	2500.0	0.0	873182.0	0.0	873182.0	0.0	873182.0	2500.0	d	440.0	873622.0	110.999
114	2.5	000_R01_VA_allProc	130	1	"<?xml version=""1.0""?>\n<Clock xmlns:dt=""urn:schemas-microsoft-com:datatypes""><Description dt:dt=""string"">E-Prime Primary Realtime Clock</Description><StartTime><Timestamp dt:dt=""int"">0</Timestamp><DateUtc dt:dt=""string"">2022-05-11T20:31:51Z</DateUtc></StartTime><FrequencyChanges><FrequencyChange><Frequency dt:dt=""r8"">3020371</Frequency><Timestamp dt:dt=""r8"">598641600637</Timestamp><Current dt:dt=""r8"">0</Current><DateUtc dt:dt=""string"">2022-05-11T20:31:51Z</DateUtc></FrequencyChange></FrequencyChanges></Clock>\n"	000_R01_VA_allProc-130-1	60.001	1.0.0.229	1	1641759171	Professional	2.0.10.356	2.0.10.356	05-11-2022	5/11/2022 8:31:51 PM	16:31:51	2.0.10.252	4	0.0	0.0	762183.0	13.0	762183.0	4000.0	-999999.0	962309.0	0.0	922181.0	0.0	Run5Proc	4	1	4	RunList	5.0	HighLargeED	8000.0	0.0	888182.0	0.0	888182.0	0.0	888182.0	0.0	A5HighLargeEDBlockProc	n/a	n/a	n/a	n/a	n/a	n/a	n/a	n/a	n/a	5.0	1.0	5.0	Run5BlockList	3.0	n/a	n/a	n/a	n/a	n/a	n/a	n/a	n/a	n/a	3.0	1.0	3.0	n/a	n/a	n/a	n/a	n/a	n/a	n/a	n/a	n/a	n/a	n/a	n/a	n/a	n/a	n/a	n/a	n/a	n/a	n/a	n/a	n/a	n/a	n/a	n/a	n/a	n/a	n/a	n/a	n/a	n/a	n/a	n/a	n/a	n/a	n/a	n/a	n/a	n/a	n/a	n/a	n/a	n/a	n/a	n/a	n/a	n/a	n/a	n/a	n/a	n/a	n/a	n/a	n/a	n/a	n/a	n/a	n/a	n/a	n/a	n/a	A5_03.jpg	500.0	0.0	878682.0	0.0	878682.0	0.0	TrialProc1	A5HighLargeEDBlockList	2500.0	0.0	876182.0	0.0	876182.0	0.0	876182.0	2500.0	d	520.0	876702.0	113.999
117	2.5	000_R01_VA_allProc	130	1	"<?xml version=""1.0""?>\n<Clock xmlns:dt=""urn:schemas-microsoft-com:datatypes""><Description dt:dt=""string"">E-Prime Primary Realtime Clock</Description><StartTime><Timestamp dt:dt=""int"">0</Timestamp><DateUtc dt:dt=""string"">2022-05-11T20:31:51Z</DateUtc></StartTime><FrequencyChanges><FrequencyChange><Frequency dt:dt=""r8"">3020371</Frequency><Timestamp dt:dt=""r8"">598641600637</Timestamp><Current dt:dt=""r8"">0</Current><DateUtc dt:dt=""string"">2022-05-11T20:31:51Z</DateUtc></FrequencyChange></FrequencyChanges></Clock>\n"	000_R01_VA_allProc-130-1	60.001	1.0.0.229	1	1641759171	Professional	2.0.10.356	2.0.10.356	05-11-2022	5/11/2022 8:31:51 PM	16:31:51	2.0.10.252	4	0.0	0.0	762183.0	13.0	762183.0	4000.0	-999999.0	962309.0	0.0	922181.0	0.0	Run5Proc	4	1	4	RunList	5.0	HighLargeED	8000.0	0.0	888182.0	0.0	888182.0	0.0	888182.0	0.0	A5HighLargeEDBlockProc	n/a	n/a	n/a	n/a	n/a	n/a	n/a	n/a	n/a	5.0	1.0	5.0	Run5BlockList	4.0	n/a	n/a	n/a	n/a	n/a	n/a	n/a	n/a	n/a	4.0	1.0	4.0	n/a	n/a	n/a	n/a	n/a	n/a	n/a	n/a	n/a	n/a	n/a	n/a	n/a	n/a	n/a	n/a	n/a	n/a	n/a	n/a	n/a	n/a	n/a	n/a	n/a	n/a	n/a	n/a	n/a	n/a	n/a	n/a	n/a	n/a	n/a	n/a	n/a	n/a	n/a	n/a	n/a	n/a	n/a	n/a	n/a	n/a	n/a	n/a	n/a	n/a	n/a	n/a	n/a	n/a	n/a	n/a	n/a	n/a	n/a	n/a	A5_04.jpg	500.0	0.0	881682.0	0.0	881682.0	0.0	TrialProc1	A5HighLargeEDBlockList	2500.0	0.0	879182.0	0.0	879182.0	0.0	879182.0	2500.0	d	1008.0	880190.0	116.999
120	2.5	000_R01_VA_allProc	130	1	"<?xml version=""1.0""?>\n<Clock xmlns:dt=""urn:schemas-microsoft-com:datatypes""><Description dt:dt=""string"">E-Prime Primary Realtime Clock</Description><StartTime><Timestamp dt:dt=""int"">0</Timestamp><DateUtc dt:dt=""string"">2022-05-11T20:31:51Z</DateUtc></StartTime><FrequencyChanges><FrequencyChange><Frequency dt:dt=""r8"">3020371</Frequency><Timestamp dt:dt=""r8"">598641600637</Timestamp><Current dt:dt=""r8"">0</Current><DateUtc dt:dt=""string"">2022-05-11T20:31:51Z</DateUtc></FrequencyChange></FrequencyChanges></Clock>\n"	000_R01_VA_allProc-130-1	60.001	1.0.0.229	1	1641759171	Professional	2.0.10.356	2.0.10.356	05-11-2022	5/11/2022 8:31:51 PM	16:31:51	2.0.10.252	4	0.0	0.0	762183.0	13.0	762183.0	4000.0	-999999.0	962309.0	0.0	922181.0	0.0	Run5Proc	4	1	4	RunList	5.0	HighLargeED	8000.0	0.0	888182.0	0.0	888182.0	0.0	888182.0	0.0	A5HighLargeEDBlockProc	n/a	n/a	n/a	n/a	n/a	n/a	n/a	n/a	n/a	5.0	1.0	5.0	Run5BlockList	5.0	n/a	n/a	n/a	n/a	n/a	n/a	n/a	n/a	n/a	5.0	1.0	5.0	n/a	n/a	n/a	n/a	n/a	n/a	n/a	n/a	n/a	n/a	n/a	n/a	n/a	n/a	n/a	n/a	n/a	n/a	n/a	n/a	n/a	n/a	n/a	n/a	n/a	n/a	n/a	n/a	n/a	n/a	n/a	n/a	n/a	n/a	n/a	n/a	n/a	n/a	n/a	n/a	n/a	n/a	n/a	n/a	n/a	n/a	n/a	n/a	n/a	n/a	n/a	n/a	n/a	n/a	n/a	n/a	n/a	n/a	n/a	n/a	A5_05.jpg	500.0	0.0	884682.0	0.0	884682.0	0.0	TrialProc1	A5HighLargeEDBlockList	2500.0	0.0	882182.0	0.0	882182.0	0.0	882182.0	2500.0	d	456.0	882638.0	119.999
123	2.5	000_R01_VA_allProc	130	1	"<?xml version=""1.0""?>\n<Clock xmlns:dt=""urn:schemas-microsoft-com:datatypes""><Description dt:dt=""string"">E-Prime Primary Realtime Clock</Description><StartTime><Timestamp dt:dt=""int"">0</Timestamp><DateUtc dt:dt=""string"">2022-05-11T20:31:51Z</DateUtc></StartTime><FrequencyChanges><FrequencyChange><Frequency dt:dt=""r8"">3020371</Frequency><Timestamp dt:dt=""r8"">598641600637</Timestamp><Current dt:dt=""r8"">0</Current><DateUtc dt:dt=""string"">2022-05-11T20:31:51Z</DateUtc></FrequencyChange></FrequencyChanges></Clock>\n"	000_R01_VA_allProc-130-1	60.001	1.0.0.229	1	1641759171	Professional	2.0.10.356	2.0.10.356	05-11-2022	5/11/2022 8:31:51 PM	16:31:51	2.0.10.252	4	0.0	0.0	762183.0	13.0	762183.0	4000.0	-999999.0	962309.0	0.0	922181.0	0.0	Run5Proc	4	1	4	RunList	5.0	HighLargeED	8000.0	0.0	888182.0	0.0	888182.0	0.0	888182.0	0.0	A5HighLargeEDBlockProc	n/a	n/a	n/a	n/a	n/a	n/a	n/a	n/a	n/a	5.0	1.0	5.0	Run5BlockList	6.0	n/a	n/a	n/a	n/a	n/a	n/a	n/a	n/a	n/a	6.0	1.0	6.0	n/a	n/a	n/a	n/a	n/a	n/a	n/a	n/a	n/a	n/a	n/a	n/a	n/a	n/a	n/a	n/a	n/a	n/a	n/a	n/a	n/a	n/a	n/a	n/a	n/a	n/a	n/a	n/a	n/a	n/a	n/a	n/a	n/a	n/a	n/a	n/a	n/a	n/a	n/a	n/a	n/a	n/a	n/a	n/a	n/a	n/a	n/a	n/a	n/a	n/a	n/a	n/a	n/a	n/a	n/a	n/a	n/a	n/a	n/a	n/a	A5_06.jpg	500.0	0.0	887682.0	0.0	887682.0	0.0	TrialProc1	A5HighLargeEDBlockList	2500.0	0.0	885182.0	0.0	885182.0	0.0	885182.0	2500.0	d	408.0	885590.0	122.999
134	2.5	000_R01_VA_allProc	130	1	"<?xml version=""1.0""?>\n<Clock xmlns:dt=""urn:schemas-microsoft-com:datatypes""><Description dt:dt=""string"">E-Prime Primary Realtime Clock</Description><StartTime><Timestamp dt:dt=""int"">0</Timestamp><DateUtc dt:dt=""string"">2022-05-11T20:31:51Z</DateUtc></StartTime><FrequencyChanges><FrequencyChange><Frequency dt:dt=""r8"">3020371</Frequency><Timestamp dt:dt=""r8"">598641600637</Timestamp><Current dt:dt=""r8"">0</Current><DateUtc dt:dt=""string"">2022-05-11T20:31:51Z</DateUtc></FrequencyChange></FrequencyChanges></Clock>\n"	000_R01_VA_allProc-130-1	60.001	1.0.0.229	1	1641759171	Professional	2.0.10.356	2.0.10.356	05-11-2022	5/11/2022 8:31:51 PM	16:31:51	2.0.10.252	4	0.0	0.0	762183.0	13.0	762183.0	4000.0	-999999.0	962309.0	0.0	922181.0	0.0	Run5Proc	4	1	4	RunList	6.0	LowSmallED	8000.0	0.0	914181.0	0.0	914181.0	0.0	914181.0	0.0	D5LowSmallEDBlockProc	n/a	n/a	n/a	n/a	n/a	n/a	n/a	n/a	n/a	6.0	1.0	6.0	Run5BlockList	1.0	n/a	n/a	n/a	n/a	n/a	n/a	n/a	n/a	n/a	n/a	n/a	n/a	n/a	n/a	n/a	n/a	n/a	n/a	n/a	n/a	n/a	n/a	n/a	n/a	n/a	n/a	n/a	n/a	n/a	n/a	n/a	n/a	n/a	n/a	n/a	n/a	n/a	n/a	n/a	n/a	n/a	n/a	n/a	n/a	n/a	1.0	1.0	1.0	n/a	n/a	n/a	n/a	n/a	n/a	n/a	n/a	n/a	n/a	n/a	n/a	n/a	n/a	n/a	n/a	n/a	n/a	n/a	n/a	n/a	n/a	n/a	n/a	D5_01.jpg	500.0	1.0	898682.0	0.0	898681.0	0.0	TrialProc1	D5LowSmallEDBlockList	2500.0	1.0	896182.0	1.0	896182.0	-1.0	896181.0	2500.0	d	817.0	896998.0	133.998
137	2.5	000_R01_VA_allProc	130	1	"<?xml version=""1.0""?>\n<Clock xmlns:dt=""urn:schemas-microsoft-com:datatypes""><Description dt:dt=""string"">E-Prime Primary Realtime Clock</Description><StartTime><Timestamp dt:dt=""int"">0</Timestamp><DateUtc dt:dt=""string"">2022-05-11T20:31:51Z</DateUtc></StartTime><FrequencyChanges><FrequencyChange><Frequency dt:dt=""r8"">3020371</Frequency><Timestamp dt:dt=""r8"">598641600637</Timestamp><Current dt:dt=""r8"">0</Current><DateUtc dt:dt=""string"">2022-05-11T20:31:51Z</DateUtc></FrequencyChange></FrequencyChanges></Clock>\n"	000_R01_VA_allProc-130-1	60.001	1.0.0.229	1	1641759171	Professional	2.0.10.356	2.0.10.356	05-11-2022	5/11/2022 8:31:51 PM	16:31:51	2.0.10.252	4	0.0	0.0	762183.0	13.0	762183.0	4000.0	-999999.0	962309.0	0.0	922181.0	0.0	Run5Proc	4	1	4	RunList	6.0	LowSmallED	8000.0	0.0	914181.0	0.0	914181.0	0.0	914181.0	0.0	D5LowSmallEDBlockProc	n/a	n/a	n/a	n/a	n/a	n/a	n/a	n/a	n/a	6.0	1.0	6.0	Run5BlockList	2.0	n/a	n/a	n/a	n/a	n/a	n/a	n/a	n/a	n/a	n/a	n/a	n/a	n/a	n/a	n/a	n/a	n/a	n/a	n/a	n/a	n/a	n/a	n/a	n/a	n/a	n/a	n/a	n/a	n/a	n/a	n/a	n/a	n/a	n/a	n/a	n/a	n/a	n/a	n/a	n/a	n/a	n/a	n/a	n/a	n/a	2.0	1.0	2.0	n/a	n/a	n/a	n/a	n/a	n/a	n/a	n/a	n/a	n/a	n/a	n/a	n/a	n/a	n/a	n/a	n/a	n/a	n/a	n/a	n/a	n/a	n/a	n/a	D5_02.jpg	500.0	0.0	901681.0	0.0	901681.0	0.0	TrialProc1	D5LowSmallEDBlockList	2500.0	1.0	899182.0	1.0	899182.0	0.0	899181.0	2500.0	d	849.0	900030.0	136.998
140	2.5	000_R01_VA_allProc	130	1	"<?xml version=""1.0""?>\n<Clock xmlns:dt=""urn:schemas-microsoft-com:datatypes""><Description dt:dt=""string"">E-Prime Primary Realtime Clock</Description><StartTime><Timestamp dt:dt=""int"">0</Timestamp><DateUtc dt:dt=""string"">2022-05-11T20:31:51Z</DateUtc></StartTime><FrequencyChanges><FrequencyChange><Frequency dt:dt=""r8"">3020371</Frequency><Timestamp dt:dt=""r8"">598641600637</Timestamp><Current dt:dt=""r8"">0</Current><DateUtc dt:dt=""string"">2022-05-11T20:31:51Z</DateUtc></FrequencyChange></FrequencyChanges></Clock>\n"	000_R01_VA_allProc-130-1	60.001	1.0.0.229	1	1641759171	Professional	2.0.10.356	2.0.10.356	05-11-2022	5/11/2022 8:31:51 PM	16:31:51	2.0.10.252	4	0.0	0.0	762183.0	13.0	762183.0	4000.0	-999999.0	962309.0	0.0	922181.0	0.0	Run5Proc	4	1	4	RunList	6.0	LowSmallED	8000.0	0.0	914181.0	0.0	914181.0	0.0	914181.0	0.0	D5LowSmallEDBlockProc	n/a	n/a	n/a	n/a	n/a	n/a	n/a	n/a	n/a	6.0	1.0	6.0	Run5BlockList	3.0	n/a	n/a	n/a	n/a	n/a	n/a	n/a	n/a	n/a	n/a	n/a	n/a	n/a	n/a	n/a	n/a	n/a	n/a	n/a	n/a	n/a	n/a	n/a	n/a	n/a	n/a	n/a	n/a	n/a	n/a	n/a	n/a	n/a	n/a	n/a	n/a	n/a	n/a	n/a	n/a	n/a	n/a	n/a	n/a	n/a	3.0	1.0	3.0	n/a	n/a	n/a	n/a	n/a	n/a	n/a	n/a	n/a	n/a	n/a	n/a	n/a	n/a	n/a	n/a	n/a	n/a	n/a	n/a	n/a	n/a	n/a	n/a	D5_03.jpg	500.0	0.0	904681.0	0.0	904681.0	0.0	TrialProc1	D5LowSmallEDBlockList	2500.0	0.0	902182.0	0.0	902181.0	0.0	902181.0	2500.0	n/a	0.0	0.0	139.998
143	2.5	000_R01_VA_allProc	130	1	"<?xml version=""1.0""?>\n<Clock xmlns:dt=""urn:schemas-microsoft-com:datatypes""><Description dt:dt=""string"">E-Prime Primary Realtime Clock</Description><StartTime><Timestamp dt:dt=""int"">0</Timestamp><DateUtc dt:dt=""string"">2022-05-11T20:31:51Z</DateUtc></StartTime><FrequencyChanges><FrequencyChange><Frequency dt:dt=""r8"">3020371</Frequency><Timestamp dt:dt=""r8"">598641600637</Timestamp><Current dt:dt=""r8"">0</Current><DateUtc dt:dt=""string"">2022-05-11T20:31:51Z</DateUtc></FrequencyChange></FrequencyChanges></Clock>\n"	000_R01_VA_allProc-130-1	60.001	1.0.0.229	1	1641759171	Professional	2.0.10.356	2.0.10.356	05-11-2022	5/11/2022 8:31:51 PM	16:31:51	2.0.10.252	4	0.0	0.0	762183.0	13.0	762183.0	4000.0	-999999.0	962309.0	0.0	922181.0	0.0	Run5Proc	4	1	4	RunList	6.0	LowSmallED	8000.0	0.0	914181.0	0.0	914181.0	0.0	914181.0	0.0	D5LowSmallEDBlockProc	n/a	n/a	n/a	n/a	n/a	n/a	n/a	n/a	n/a	6.0	1.0	6.0	Run5BlockList	4.0	n/a	n/a	n/a	n/a	n/a	n/a	n/a	n/a	n/a	n/a	n/a	n/a	n/a	n/a	n/a	n/a	n/a	n/a	n/a	n/a	n/a	n/a	n/a	n/a	n/a	n/a	n/a	n/a	n/a	n/a	n/a	n/a	n/a	n/a	n/a	n/a	n/a	n/a	n/a	n/a	n/a	n/a	n/a	n/a	n/a	4.0	1.0	4.0	n/a	n/a	n/a	n/a	n/a	n/a	n/a	n/a	n/a	n/a	n/a	n/a	n/a	n/a	n/a	n/a	n/a	n/a	n/a	n/a	n/a	n/a	n/a	n/a	D5_04.jpg	500.0	0.0	907681.0	0.0	907681.0	0.0	TrialProc1	D5LowSmallEDBlockList	2500.0	0.0	905181.0	0.0	905181.0	0.0	905181.0	2500.0	d	705.0	905886.0	142.998
146	2.5	000_R01_VA_allProc	130	1	"<?xml version=""1.0""?>\n<Clock xmlns:dt=""urn:schemas-microsoft-com:datatypes""><Description dt:dt=""string"">E-Prime Primary Realtime Clock</Description><StartTime><Timestamp dt:dt=""int"">0</Timestamp><DateUtc dt:dt=""string"">2022-05-11T20:31:51Z</DateUtc></StartTime><FrequencyChanges><FrequencyChange><Frequency dt:dt=""r8"">3020371</Frequency><Timestamp dt:dt=""r8"">598641600637</Timestamp><Current dt:dt=""r8"">0</Current><DateUtc dt:dt=""string"">2022-05-11T20:31:51Z</DateUtc></FrequencyChange></FrequencyChanges></Clock>\n"	000_R01_VA_allProc-130-1	60.001	1.0.0.229	1	1641759171	Professional	2.0.10.356	2.0.10.356	05-11-2022	5/11/2022 8:31:51 PM	16:31:51	2.0.10.252	4	0.0	0.0	762183.0	13.0	762183.0	4000.0	-999999.0	962309.0	0.0	922181.0	0.0	Run5Proc	4	1	4	RunList	6.0	LowSmallED	8000.0	0.0	914181.0	0.0	914181.0	0.0	914181.0	0.0	D5LowSmallEDBlockProc	n/a	n/a	n/a	n/a	n/a	n/a	n/a	n/a	n/a	6.0	1.0	6.0	Run5BlockList	5.0	n/a	n/a	n/a	n/a	n/a	n/a	n/a	n/a	n/a	n/a	n/a	n/a	n/a	n/a	n/a	n/a	n/a	n/a	n/a	n/a	n/a	n/a	n/a	n/a	n/a	n/a	n/a	n/a	n/a	n/a	n/a	n/a	n/a	n/a	n/a	n/a	n/a	n/a	n/a	n/a	n/a	n/a	n/a	n/a	n/a	5.0	1.0	5.0	n/a	n/a	n/a	n/a	n/a	n/a	n/a	n/a	n/a	n/a	n/a	n/a	n/a	n/a	n/a	n/a	n/a	n/a	n/a	n/a	n/a	n/a	n/a	n/a	D5_05.jpg	500.0	0.0	910681.0	0.0	910681.0	0.0	TrialProc1	D5LowSmallEDBlockList	2500.0	0.0	908181.0	0.0	908181.0	0.0	908181.0	2500.0	d	513.0	908694.0	145.998
149	2.5	000_R01_VA_allProc	130	1	"<?xml version=""1.0""?>\n<Clock xmlns:dt=""urn:schemas-microsoft-com:datatypes""><Description dt:dt=""string"">E-Prime Primary Realtime Clock</Description><StartTime><Timestamp dt:dt=""int"">0</Timestamp><DateUtc dt:dt=""string"">2022-05-11T20:31:51Z</DateUtc></StartTime><FrequencyChanges><FrequencyChange><Frequency dt:dt=""r8"">3020371</Frequency><Timestamp dt:dt=""r8"">598641600637</Timestamp><Current dt:dt=""r8"">0</Current><DateUtc dt:dt=""string"">2022-05-11T20:31:51Z</DateUtc></FrequencyChange></FrequencyChanges></Clock>\n"	000_R01_VA_allProc-130-1	60.001	1.0.0.229	1	1641759171	Professional	2.0.10.356	2.0.10.356	05-11-2022	5/11/2022 8:31:51 PM	16:31:51	2.0.10.252	4	0.0	0.0	762183.0	13.0	762183.0	4000.0	-999999.0	962309.0	0.0	922181.0	0.0	Run5Proc	4	1	4	RunList	6.0	LowSmallED	8000.0	0.0	914181.0	0.0	914181.0	0.0	914181.0	0.0	D5LowSmallEDBlockProc	n/a	n/a	n/a	n/a	n/a	n/a	n/a	n/a	n/a	6.0	1.0	6.0	Run5BlockList	6.0	n/a	n/a	n/a	n/a	n/a	n/a	n/a	n/a	n/a	n/a	n/a	n/a	n/a	n/a	n/a	n/a	n/a	n/a	n/a	n/a	n/a	n/a	n/a	n/a	n/a	n/a	n/a	n/a	n/a	n/a	n/a	n/a	n/a	n/a	n/a	n/a	n/a	n/a	n/a	n/a	n/a	n/a	n/a	n/a	n/a	6.0	1.0	6.0	n/a	n/a	n/a	n/a	n/a	n/a	n/a	n/a	n/a	n/a	n/a	n/a	n/a	n/a	n/a	n/a	n/a	n/a	n/a	n/a	n/a	n/a	n/a	n/a	D5_06.jpg	500.0	0.0	913681.0	0.0	913681.0	0.0	TrialProc1	D5LowSmallEDBlockList	2500.0	0.0	911181.0	0.0	911181.0	0.0	911181.0	2500.0	d	377.0	911558.0	148.998
