onset	duration	experiment_name	sub	ses	clock_information	datafile_basename	display_refreshrate	experiment_version	group	randomseed	runtime_capabilities	runtime_version	runtimeversionexpected	session_date	session_start_date_time_utc	session_time	studio_version	block	fixation2trs_durationerror	fixation2trs_offsetdelay	fixation2trs_offsettime	fixation2trs_onsetdelay	fixation2trs_onsettime	fixation2trs_onsettoonsettime	goodwork_durationerror	goodwork_finishtime	goodwork_onsetdelay	goodwork_onsettime	goodwork_onsettoonsettime	procedure_block	runlist	runlist_cycle	runlist_sample	running_block	trial	condition	interblockinterval_duration	interblockinterval_durationerror	interblockinterval_finishtime	interblockinterval_offsetdelay	interblockinterval_offsettime	interblockinterval_onsetdelay	interblockinterval_onsettime	interblockinterval_onsettoonsettime	procedure_trial	run1blocklist	run1blocklist_cycle	run1blocklist_sample	run2blocklist	run2blocklist_cycle	run2blocklist_sample	run3blocklist	run3blocklist_cycle	run3blocklist_sample	run4blocklist	run4blocklist_cycle	run4blocklist_sample	run5blocklist	run5blocklist_cycle	run5blocklist_sample	running_trial	subtrial	a1highlargeedblocklist	a1highlargeedblocklist_cycle	a1highlargeedblocklist_sample	a2highlargeedblocklist	a2highlargeedblocklist_cycle	a2highlargeedblocklist_sample	a3highlargeedblocklist	a3highlargeedblocklist_cycle	a3highlargeedblocklist_sample	a4highlargeedblocklist	a4highlargeedblocklist_cycle	a4highlargeedblocklist_sample	a5highlargeedblocklist	a5highlargeedblocklist_cycle	a5highlargeedblocklist_sample	b1highsmalledblocklist	b1highsmalledblocklist_cycle	b1highsmalledblocklist_sample	b2highsmalledblocklist	b2highsmalledblocklist_cycle	b2highsmalledblocklist_sample	b3highsmalledblocklist	b3highsmalledblocklist_cycle	b3highsmalledblocklist_sample	b4highsmalledblocklist	b4highsmalledblocklist_cycle	b4highsmalledblocklist_sample	b5highsmalledblocklist	b5highsmalledblocklist_cycle	b5highsmalledblocklist_sample	c1lowlargeedblocklist	c1lowlargeedblocklist_cycle	c1lowlargeedblocklist_sample	c2lowlargeedblocklist	c2lowlargeedblocklist_cycle	c2lowlargeedblocklist_sample	c3lowlargeedblocklist	c3lowlargeedblocklist_cycle	c3lowlargeedblocklist_sample	c4lowlargeedblocklist	c4lowlargeedblocklist_cycle	c4lowlargeedblocklist_sample	c5lowlargeedblocklist	c5lowlargeedblocklist_cycle	c5lowlargeedblocklist_sample	d1lowsmalledblocklist	d1lowsmalledblocklist_cycle	d1lowsmalledblocklist_sample	d2highlargeedblocklist	d2highlargeedblocklist_cycle	d2highlargeedblocklist_sample	d3lowsmalledblocklist	d3lowsmalledblocklist_cycle	d3lowsmalledblocklist_sample	d4lowsmalledblocklist	d4lowsmalledblocklist_cycle	d4lowsmalledblocklist_sample	d5lowsmalledblocklist	d5lowsmalledblocklist_cycle	d5lowsmalledblocklist_sample	e1officelargeblocklist	e1officelargeblocklist_cycle	e1officelargeblocklist_sample	e2officelargeblocklist	e2officelargeblocklist_cycle	e2officelargeblocklist_sample	e3officelargeblocklist	e3officelargeblocklist_cycle	e3officelargeblocklist_sample	e4officelargeblocklist	e4officelargeblocklist_cycle	e4officelargeblocklist_sample	e5officelargeblocklist	e5officelargeblocklist_cycle	e5officelargeblocklist_sample	f1officesmallblocklist	f1officesmallblocklist_cycle	f1officesmallblocklist_sample	f2officesmallblocklist	f2officesmallblocklist_cycle	f2officesmallblocklist_sample	f3officesmallblocklist	f3officesmallblocklist_cycle	f3officesmallblocklist_sample	f4officesmallblocklist	f4officesmallblocklist_cycle	f4officesmallblocklist_sample	f5officesmallblocklist	f5officesmallblocklist_cycle	f5officesmallblocklist_sample	filename	isi_duration	isi_durationerror	isi_finishtime	isi_onsetdelay	isi_onsettime	isi_onsettoonsettime	procedure_subtrial	running_subtrial	stimslide_duration	stimslide_durationerror	stimslide_finishtime	stimslide_offsetdelay	stimslide_offsettime	stimslide_onsetdelay	stimslide_onsettime	stimslide_onsettoonsettime	stimslide_resp	stimslide_rt	stimslide_rttime	onset_unrounded
4	2.5	000_R01_VB_allProc	43	1	"<?xml version=""1.0""?>\n<Clock xmlns:dt=""urn:schemas-microsoft-com:datatypes""><Description dt:dt=""string"">E-Prime Primary Realtime Clock</Description><StartTime><Timestamp dt:dt=""int"">0</Timestamp><DateUtc dt:dt=""string"">2019-02-26T21:17:00Z</DateUtc></StartTime><FrequencyChanges><FrequencyChange><Frequency dt:dt=""r8"">3020400</Frequency><Timestamp dt:dt=""r8"">1808513083333</Timestamp><Current dt:dt=""r8"">0</Current><DateUtc dt:dt=""string"">2019-02-26T21:17:00Z</DateUtc></FrequencyChange></FrequencyChanges></Clock>\n"	000_R01_VB_allProc-43-1	60.022	1.0.0.185	1	332465284	Professional	2.0.10.356	2.0.10.356	02-26-2019	2/26/2019 9:17:00 PM	16:17:00	2.0.10.252	3	0	0	567867	7	567867	3998	-999999	757289	-3	727808	0	Run4Proc	3	1	3	RunList	1	OfficeSmall	8000	0	589859	0	589859	0	589859	0	F4OfficeSmallBlockProc	n/a	n/a	n/a	n/a	n/a	n/a	n/a	n/a	n/a	1.0	1.0	1.0	n/a	n/a	n/a	Run4BlockList	1	n/a	n/a	n/a	n/a	n/a	n/a	n/a	n/a	n/a	n/a	n/a	n/a	n/a	n/a	n/a	n/a	n/a	n/a	n/a	n/a	n/a	n/a	n/a	n/a	n/a	n/a	n/a	n/a	n/a	n/a	n/a	n/a	n/a	n/a	n/a	n/a	n/a	n/a	n/a	n/a	n/a	n/a	n/a	n/a	n/a	n/a	n/a	n/a	n/a	n/a	n/a	n/a	n/a	n/a	n/a	n/a	n/a	n/a	n/a	n/a	n/a	n/a	n/a	n/a	n/a	n/a	n/a	n/a	n/a	n/a	n/a	n/a	n/a	n/a	n/a	n/a	n/a	n/a	n/a	n/a	n/a	n/a	n/a	n/a	1.0	1.0	1.0	n/a	n/a	n/a	F4_01.jpg	500	0	574364	-1	574364	0	TrialProc1	F4OfficeSmallBlockList	2500	0	571865	0	571865	-2	571865	2499	c	1708	573573	4.0
7	2.5	000_R01_VB_allProc	43	1	"<?xml version=""1.0""?>\n<Clock xmlns:dt=""urn:schemas-microsoft-com:datatypes""><Description dt:dt=""string"">E-Prime Primary Realtime Clock</Description><StartTime><Timestamp dt:dt=""int"">0</Timestamp><DateUtc dt:dt=""string"">2019-02-26T21:17:00Z</DateUtc></StartTime><FrequencyChanges><FrequencyChange><Frequency dt:dt=""r8"">3020400</Frequency><Timestamp dt:dt=""r8"">1808513083333</Timestamp><Current dt:dt=""r8"">0</Current><DateUtc dt:dt=""string"">2019-02-26T21:17:00Z</DateUtc></FrequencyChange></FrequencyChanges></Clock>\n"	000_R01_VB_allProc-43-1	60.022	1.0.0.185	1	332465284	Professional	2.0.10.356	2.0.10.356	02-26-2019	2/26/2019 9:17:00 PM	16:17:00	2.0.10.252	3	0	0	567867	7	567867	3998	-999999	757289	-3	727808	0	Run4Proc	3	1	3	RunList	1	OfficeSmall	8000	0	589859	0	589859	0	589859	0	F4OfficeSmallBlockProc	n/a	n/a	n/a	n/a	n/a	n/a	n/a	n/a	n/a	1.0	1.0	1.0	n/a	n/a	n/a	Run4BlockList	2	n/a	n/a	n/a	n/a	n/a	n/a	n/a	n/a	n/a	n/a	n/a	n/a	n/a	n/a	n/a	n/a	n/a	n/a	n/a	n/a	n/a	n/a	n/a	n/a	n/a	n/a	n/a	n/a	n/a	n/a	n/a	n/a	n/a	n/a	n/a	n/a	n/a	n/a	n/a	n/a	n/a	n/a	n/a	n/a	n/a	n/a	n/a	n/a	n/a	n/a	n/a	n/a	n/a	n/a	n/a	n/a	n/a	n/a	n/a	n/a	n/a	n/a	n/a	n/a	n/a	n/a	n/a	n/a	n/a	n/a	n/a	n/a	n/a	n/a	n/a	n/a	n/a	n/a	n/a	n/a	n/a	n/a	n/a	n/a	2.0	1.0	2.0	n/a	n/a	n/a	F4_02.jpg	500	0	577363	-1	577363	0	TrialProc1	F4OfficeSmallBlockList	2500	0	574864	0	574864	0	574864	2499	c	717	575581	6.9990000000000006
10	2.5	000_R01_VB_allProc	43	1	"<?xml version=""1.0""?>\n<Clock xmlns:dt=""urn:schemas-microsoft-com:datatypes""><Description dt:dt=""string"">E-Prime Primary Realtime Clock</Description><StartTime><Timestamp dt:dt=""int"">0</Timestamp><DateUtc dt:dt=""string"">2019-02-26T21:17:00Z</DateUtc></StartTime><FrequencyChanges><FrequencyChange><Frequency dt:dt=""r8"">3020400</Frequency><Timestamp dt:dt=""r8"">1808513083333</Timestamp><Current dt:dt=""r8"">0</Current><DateUtc dt:dt=""string"">2019-02-26T21:17:00Z</DateUtc></FrequencyChange></FrequencyChanges></Clock>\n"	000_R01_VB_allProc-43-1	60.022	1.0.0.185	1	332465284	Professional	2.0.10.356	2.0.10.356	02-26-2019	2/26/2019 9:17:00 PM	16:17:00	2.0.10.252	3	0	0	567867	7	567867	3998	-999999	757289	-3	727808	0	Run4Proc	3	1	3	RunList	1	OfficeSmall	8000	0	589859	0	589859	0	589859	0	F4OfficeSmallBlockProc	n/a	n/a	n/a	n/a	n/a	n/a	n/a	n/a	n/a	1.0	1.0	1.0	n/a	n/a	n/a	Run4BlockList	3	n/a	n/a	n/a	n/a	n/a	n/a	n/a	n/a	n/a	n/a	n/a	n/a	n/a	n/a	n/a	n/a	n/a	n/a	n/a	n/a	n/a	n/a	n/a	n/a	n/a	n/a	n/a	n/a	n/a	n/a	n/a	n/a	n/a	n/a	n/a	n/a	n/a	n/a	n/a	n/a	n/a	n/a	n/a	n/a	n/a	n/a	n/a	n/a	n/a	n/a	n/a	n/a	n/a	n/a	n/a	n/a	n/a	n/a	n/a	n/a	n/a	n/a	n/a	n/a	n/a	n/a	n/a	n/a	n/a	n/a	n/a	n/a	n/a	n/a	n/a	n/a	n/a	n/a	n/a	n/a	n/a	n/a	n/a	n/a	3.0	1.0	3.0	n/a	n/a	n/a	F4_03.jpg	500	0	580362	-1	580362	0	TrialProc1	F4OfficeSmallBlockList	2500	0	577863	0	577863	0	577863	2499	c	710	578573	9.998000000000001
13	2.5	000_R01_VB_allProc	43	1	"<?xml version=""1.0""?>\n<Clock xmlns:dt=""urn:schemas-microsoft-com:datatypes""><Description dt:dt=""string"">E-Prime Primary Realtime Clock</Description><StartTime><Timestamp dt:dt=""int"">0</Timestamp><DateUtc dt:dt=""string"">2019-02-26T21:17:00Z</DateUtc></StartTime><FrequencyChanges><FrequencyChange><Frequency dt:dt=""r8"">3020400</Frequency><Timestamp dt:dt=""r8"">1808513083333</Timestamp><Current dt:dt=""r8"">0</Current><DateUtc dt:dt=""string"">2019-02-26T21:17:00Z</DateUtc></FrequencyChange></FrequencyChanges></Clock>\n"	000_R01_VB_allProc-43-1	60.022	1.0.0.185	1	332465284	Professional	2.0.10.356	2.0.10.356	02-26-2019	2/26/2019 9:17:00 PM	16:17:00	2.0.10.252	3	0	0	567867	7	567867	3998	-999999	757289	-3	727808	0	Run4Proc	3	1	3	RunList	1	OfficeSmall	8000	0	589859	0	589859	0	589859	0	F4OfficeSmallBlockProc	n/a	n/a	n/a	n/a	n/a	n/a	n/a	n/a	n/a	1.0	1.0	1.0	n/a	n/a	n/a	Run4BlockList	4	n/a	n/a	n/a	n/a	n/a	n/a	n/a	n/a	n/a	n/a	n/a	n/a	n/a	n/a	n/a	n/a	n/a	n/a	n/a	n/a	n/a	n/a	n/a	n/a	n/a	n/a	n/a	n/a	n/a	n/a	n/a	n/a	n/a	n/a	n/a	n/a	n/a	n/a	n/a	n/a	n/a	n/a	n/a	n/a	n/a	n/a	n/a	n/a	n/a	n/a	n/a	n/a	n/a	n/a	n/a	n/a	n/a	n/a	n/a	n/a	n/a	n/a	n/a	n/a	n/a	n/a	n/a	n/a	n/a	n/a	n/a	n/a	n/a	n/a	n/a	n/a	n/a	n/a	n/a	n/a	n/a	n/a	n/a	n/a	4.0	1.0	4.0	n/a	n/a	n/a	F4_04.jpg	500	0	583361	-1	583361	0	TrialProc1	F4OfficeSmallBlockList	2500	0	580862	0	580862	0	580862	2499	c	975	581837	12.997
16	2.5	000_R01_VB_allProc	43	1	"<?xml version=""1.0""?>\n<Clock xmlns:dt=""urn:schemas-microsoft-com:datatypes""><Description dt:dt=""string"">E-Prime Primary Realtime Clock</Description><StartTime><Timestamp dt:dt=""int"">0</Timestamp><DateUtc dt:dt=""string"">2019-02-26T21:17:00Z</DateUtc></StartTime><FrequencyChanges><FrequencyChange><Frequency dt:dt=""r8"">3020400</Frequency><Timestamp dt:dt=""r8"">1808513083333</Timestamp><Current dt:dt=""r8"">0</Current><DateUtc dt:dt=""string"">2019-02-26T21:17:00Z</DateUtc></FrequencyChange></FrequencyChanges></Clock>\n"	000_R01_VB_allProc-43-1	60.022	1.0.0.185	1	332465284	Professional	2.0.10.356	2.0.10.356	02-26-2019	2/26/2019 9:17:00 PM	16:17:00	2.0.10.252	3	0	0	567867	7	567867	3998	-999999	757289	-3	727808	0	Run4Proc	3	1	3	RunList	1	OfficeSmall	8000	0	589859	0	589859	0	589859	0	F4OfficeSmallBlockProc	n/a	n/a	n/a	n/a	n/a	n/a	n/a	n/a	n/a	1.0	1.0	1.0	n/a	n/a	n/a	Run4BlockList	5	n/a	n/a	n/a	n/a	n/a	n/a	n/a	n/a	n/a	n/a	n/a	n/a	n/a	n/a	n/a	n/a	n/a	n/a	n/a	n/a	n/a	n/a	n/a	n/a	n/a	n/a	n/a	n/a	n/a	n/a	n/a	n/a	n/a	n/a	n/a	n/a	n/a	n/a	n/a	n/a	n/a	n/a	n/a	n/a	n/a	n/a	n/a	n/a	n/a	n/a	n/a	n/a	n/a	n/a	n/a	n/a	n/a	n/a	n/a	n/a	n/a	n/a	n/a	n/a	n/a	n/a	n/a	n/a	n/a	n/a	n/a	n/a	n/a	n/a	n/a	n/a	n/a	n/a	n/a	n/a	n/a	n/a	n/a	n/a	5.0	1.0	5.0	n/a	n/a	n/a	F4_05.jpg	500	0	586360	-1	586360	0	TrialProc1	F4OfficeSmallBlockList	2500	0	583861	0	583861	0	583861	2499	c	888	584749	15.996
19	2.5	000_R01_VB_allProc	43	1	"<?xml version=""1.0""?>\n<Clock xmlns:dt=""urn:schemas-microsoft-com:datatypes""><Description dt:dt=""string"">E-Prime Primary Realtime Clock</Description><StartTime><Timestamp dt:dt=""int"">0</Timestamp><DateUtc dt:dt=""string"">2019-02-26T21:17:00Z</DateUtc></StartTime><FrequencyChanges><FrequencyChange><Frequency dt:dt=""r8"">3020400</Frequency><Timestamp dt:dt=""r8"">1808513083333</Timestamp><Current dt:dt=""r8"">0</Current><DateUtc dt:dt=""string"">2019-02-26T21:17:00Z</DateUtc></FrequencyChange></FrequencyChanges></Clock>\n"	000_R01_VB_allProc-43-1	60.022	1.0.0.185	1	332465284	Professional	2.0.10.356	2.0.10.356	02-26-2019	2/26/2019 9:17:00 PM	16:17:00	2.0.10.252	3	0	0	567867	7	567867	3998	-999999	757289	-3	727808	0	Run4Proc	3	1	3	RunList	1	OfficeSmall	8000	0	589859	0	589859	0	589859	0	F4OfficeSmallBlockProc	n/a	n/a	n/a	n/a	n/a	n/a	n/a	n/a	n/a	1.0	1.0	1.0	n/a	n/a	n/a	Run4BlockList	6	n/a	n/a	n/a	n/a	n/a	n/a	n/a	n/a	n/a	n/a	n/a	n/a	n/a	n/a	n/a	n/a	n/a	n/a	n/a	n/a	n/a	n/a	n/a	n/a	n/a	n/a	n/a	n/a	n/a	n/a	n/a	n/a	n/a	n/a	n/a	n/a	n/a	n/a	n/a	n/a	n/a	n/a	n/a	n/a	n/a	n/a	n/a	n/a	n/a	n/a	n/a	n/a	n/a	n/a	n/a	n/a	n/a	n/a	n/a	n/a	n/a	n/a	n/a	n/a	n/a	n/a	n/a	n/a	n/a	n/a	n/a	n/a	n/a	n/a	n/a	n/a	n/a	n/a	n/a	n/a	n/a	n/a	n/a	n/a	6.0	1.0	6.0	n/a	n/a	n/a	F4_06.jpg	500	0	589359	-1	589359	0	TrialProc1	F4OfficeSmallBlockList	2500	0	586860	0	586860	0	586860	2499	c	873	587733	18.994999999999997
30	2.5	000_R01_VB_allProc	43	1	"<?xml version=""1.0""?>\n<Clock xmlns:dt=""urn:schemas-microsoft-com:datatypes""><Description dt:dt=""string"">E-Prime Primary Realtime Clock</Description><StartTime><Timestamp dt:dt=""int"">0</Timestamp><DateUtc dt:dt=""string"">2019-02-26T21:17:00Z</DateUtc></StartTime><FrequencyChanges><FrequencyChange><Frequency dt:dt=""r8"">3020400</Frequency><Timestamp dt:dt=""r8"">1808513083333</Timestamp><Current dt:dt=""r8"">0</Current><DateUtc dt:dt=""string"">2019-02-26T21:17:00Z</DateUtc></FrequencyChange></FrequencyChanges></Clock>\n"	000_R01_VB_allProc-43-1	60.022	1.0.0.185	1	332465284	Professional	2.0.10.356	2.0.10.356	02-26-2019	2/26/2019 9:17:00 PM	16:17:00	2.0.10.252	3	0	0	567867	7	567867	3998	-999999	757289	-3	727808	0	Run4Proc	3	1	3	RunList	2	HighSmallED	8000	0	615849	0	615849	0	615849	0	B4HighSmallEDBlockProc	n/a	n/a	n/a	n/a	n/a	n/a	n/a	n/a	n/a	2.0	1.0	2.0	n/a	n/a	n/a	Run4BlockList	1	n/a	n/a	n/a	n/a	n/a	n/a	n/a	n/a	n/a	n/a	n/a	n/a	n/a	n/a	n/a	n/a	n/a	n/a	n/a	n/a	n/a	n/a	n/a	n/a	1.0	1.0	1.0	n/a	n/a	n/a	n/a	n/a	n/a	n/a	n/a	n/a	n/a	n/a	n/a	n/a	n/a	n/a	n/a	n/a	n/a	n/a	n/a	n/a	n/a	n/a	n/a	n/a	n/a	n/a	n/a	n/a	n/a	n/a	n/a	n/a	n/a	n/a	n/a	n/a	n/a	n/a	n/a	n/a	n/a	n/a	n/a	n/a	n/a	n/a	n/a	n/a	n/a	n/a	n/a	n/a	n/a	n/a	n/a	n/a	n/a	n/a	n/a	n/a	n/a	n/a	B4_01.jpg	500	0	600355	-1	600355	0	TrialProc1	B4HighSmallEDBlockList	2500	0	597856	0	597856	-3	597856	2499	d	1140	598996	29.991
33	2.5	000_R01_VB_allProc	43	1	"<?xml version=""1.0""?>\n<Clock xmlns:dt=""urn:schemas-microsoft-com:datatypes""><Description dt:dt=""string"">E-Prime Primary Realtime Clock</Description><StartTime><Timestamp dt:dt=""int"">0</Timestamp><DateUtc dt:dt=""string"">2019-02-26T21:17:00Z</DateUtc></StartTime><FrequencyChanges><FrequencyChange><Frequency dt:dt=""r8"">3020400</Frequency><Timestamp dt:dt=""r8"">1808513083333</Timestamp><Current dt:dt=""r8"">0</Current><DateUtc dt:dt=""string"">2019-02-26T21:17:00Z</DateUtc></FrequencyChange></FrequencyChanges></Clock>\n"	000_R01_VB_allProc-43-1	60.022	1.0.0.185	1	332465284	Professional	2.0.10.356	2.0.10.356	02-26-2019	2/26/2019 9:17:00 PM	16:17:00	2.0.10.252	3	0	0	567867	7	567867	3998	-999999	757289	-3	727808	0	Run4Proc	3	1	3	RunList	2	HighSmallED	8000	0	615849	0	615849	0	615849	0	B4HighSmallEDBlockProc	n/a	n/a	n/a	n/a	n/a	n/a	n/a	n/a	n/a	2.0	1.0	2.0	n/a	n/a	n/a	Run4BlockList	2	n/a	n/a	n/a	n/a	n/a	n/a	n/a	n/a	n/a	n/a	n/a	n/a	n/a	n/a	n/a	n/a	n/a	n/a	n/a	n/a	n/a	n/a	n/a	n/a	2.0	1.0	2.0	n/a	n/a	n/a	n/a	n/a	n/a	n/a	n/a	n/a	n/a	n/a	n/a	n/a	n/a	n/a	n/a	n/a	n/a	n/a	n/a	n/a	n/a	n/a	n/a	n/a	n/a	n/a	n/a	n/a	n/a	n/a	n/a	n/a	n/a	n/a	n/a	n/a	n/a	n/a	n/a	n/a	n/a	n/a	n/a	n/a	n/a	n/a	n/a	n/a	n/a	n/a	n/a	n/a	n/a	n/a	n/a	n/a	n/a	n/a	n/a	n/a	n/a	n/a	B4_02.jpg	500	0	603354	0	603354	0	TrialProc1	B4HighSmallEDBlockList	2500	1	600855	1	600855	-1	600854	2500	d	958	601812	32.989000000000004
36	2.5	000_R01_VB_allProc	43	1	"<?xml version=""1.0""?>\n<Clock xmlns:dt=""urn:schemas-microsoft-com:datatypes""><Description dt:dt=""string"">E-Prime Primary Realtime Clock</Description><StartTime><Timestamp dt:dt=""int"">0</Timestamp><DateUtc dt:dt=""string"">2019-02-26T21:17:00Z</DateUtc></StartTime><FrequencyChanges><FrequencyChange><Frequency dt:dt=""r8"">3020400</Frequency><Timestamp dt:dt=""r8"">1808513083333</Timestamp><Current dt:dt=""r8"">0</Current><DateUtc dt:dt=""string"">2019-02-26T21:17:00Z</DateUtc></FrequencyChange></FrequencyChanges></Clock>\n"	000_R01_VB_allProc-43-1	60.022	1.0.0.185	1	332465284	Professional	2.0.10.356	2.0.10.356	02-26-2019	2/26/2019 9:17:00 PM	16:17:00	2.0.10.252	3	0	0	567867	7	567867	3998	-999999	757289	-3	727808	0	Run4Proc	3	1	3	RunList	2	HighSmallED	8000	0	615849	0	615849	0	615849	0	B4HighSmallEDBlockProc	n/a	n/a	n/a	n/a	n/a	n/a	n/a	n/a	n/a	2.0	1.0	2.0	n/a	n/a	n/a	Run4BlockList	3	n/a	n/a	n/a	n/a	n/a	n/a	n/a	n/a	n/a	n/a	n/a	n/a	n/a	n/a	n/a	n/a	n/a	n/a	n/a	n/a	n/a	n/a	n/a	n/a	3.0	1.0	3.0	n/a	n/a	n/a	n/a	n/a	n/a	n/a	n/a	n/a	n/a	n/a	n/a	n/a	n/a	n/a	n/a	n/a	n/a	n/a	n/a	n/a	n/a	n/a	n/a	n/a	n/a	n/a	n/a	n/a	n/a	n/a	n/a	n/a	n/a	n/a	n/a	n/a	n/a	n/a	n/a	n/a	n/a	n/a	n/a	n/a	n/a	n/a	n/a	n/a	n/a	n/a	n/a	n/a	n/a	n/a	n/a	n/a	n/a	n/a	n/a	n/a	n/a	n/a	B4_03.jpg	500	1	606353	-1	606352	0	TrialProc1	B4HighSmallEDBlockList	2500	0	603853	0	603853	-1	603853	2499	d	1135	604988	35.988
39	2.5	000_R01_VB_allProc	43	1	"<?xml version=""1.0""?>\n<Clock xmlns:dt=""urn:schemas-microsoft-com:datatypes""><Description dt:dt=""string"">E-Prime Primary Realtime Clock</Description><StartTime><Timestamp dt:dt=""int"">0</Timestamp><DateUtc dt:dt=""string"">2019-02-26T21:17:00Z</DateUtc></StartTime><FrequencyChanges><FrequencyChange><Frequency dt:dt=""r8"">3020400</Frequency><Timestamp dt:dt=""r8"">1808513083333</Timestamp><Current dt:dt=""r8"">0</Current><DateUtc dt:dt=""string"">2019-02-26T21:17:00Z</DateUtc></FrequencyChange></FrequencyChanges></Clock>\n"	000_R01_VB_allProc-43-1	60.022	1.0.0.185	1	332465284	Professional	2.0.10.356	2.0.10.356	02-26-2019	2/26/2019 9:17:00 PM	16:17:00	2.0.10.252	3	0	0	567867	7	567867	3998	-999999	757289	-3	727808	0	Run4Proc	3	1	3	RunList	2	HighSmallED	8000	0	615849	0	615849	0	615849	0	B4HighSmallEDBlockProc	n/a	n/a	n/a	n/a	n/a	n/a	n/a	n/a	n/a	2.0	1.0	2.0	n/a	n/a	n/a	Run4BlockList	4	n/a	n/a	n/a	n/a	n/a	n/a	n/a	n/a	n/a	n/a	n/a	n/a	n/a	n/a	n/a	n/a	n/a	n/a	n/a	n/a	n/a	n/a	n/a	n/a	4.0	1.0	4.0	n/a	n/a	n/a	n/a	n/a	n/a	n/a	n/a	n/a	n/a	n/a	n/a	n/a	n/a	n/a	n/a	n/a	n/a	n/a	n/a	n/a	n/a	n/a	n/a	n/a	n/a	n/a	n/a	n/a	n/a	n/a	n/a	n/a	n/a	n/a	n/a	n/a	n/a	n/a	n/a	n/a	n/a	n/a	n/a	n/a	n/a	n/a	n/a	n/a	n/a	n/a	n/a	n/a	n/a	n/a	n/a	n/a	n/a	n/a	n/a	n/a	n/a	n/a	B4_04.jpg	500	0	609351	-1	609351	0	TrialProc1	B4HighSmallEDBlockList	2500	0	606852	0	606852	0	606852	2499	d	920	607772	38.987
42	2.5	000_R01_VB_allProc	43	1	"<?xml version=""1.0""?>\n<Clock xmlns:dt=""urn:schemas-microsoft-com:datatypes""><Description dt:dt=""string"">E-Prime Primary Realtime Clock</Description><StartTime><Timestamp dt:dt=""int"">0</Timestamp><DateUtc dt:dt=""string"">2019-02-26T21:17:00Z</DateUtc></StartTime><FrequencyChanges><FrequencyChange><Frequency dt:dt=""r8"">3020400</Frequency><Timestamp dt:dt=""r8"">1808513083333</Timestamp><Current dt:dt=""r8"">0</Current><DateUtc dt:dt=""string"">2019-02-26T21:17:00Z</DateUtc></FrequencyChange></FrequencyChanges></Clock>\n"	000_R01_VB_allProc-43-1	60.022	1.0.0.185	1	332465284	Professional	2.0.10.356	2.0.10.356	02-26-2019	2/26/2019 9:17:00 PM	16:17:00	2.0.10.252	3	0	0	567867	7	567867	3998	-999999	757289	-3	727808	0	Run4Proc	3	1	3	RunList	2	HighSmallED	8000	0	615849	0	615849	0	615849	0	B4HighSmallEDBlockProc	n/a	n/a	n/a	n/a	n/a	n/a	n/a	n/a	n/a	2.0	1.0	2.0	n/a	n/a	n/a	Run4BlockList	5	n/a	n/a	n/a	n/a	n/a	n/a	n/a	n/a	n/a	n/a	n/a	n/a	n/a	n/a	n/a	n/a	n/a	n/a	n/a	n/a	n/a	n/a	n/a	n/a	5.0	1.0	5.0	n/a	n/a	n/a	n/a	n/a	n/a	n/a	n/a	n/a	n/a	n/a	n/a	n/a	n/a	n/a	n/a	n/a	n/a	n/a	n/a	n/a	n/a	n/a	n/a	n/a	n/a	n/a	n/a	n/a	n/a	n/a	n/a	n/a	n/a	n/a	n/a	n/a	n/a	n/a	n/a	n/a	n/a	n/a	n/a	n/a	n/a	n/a	n/a	n/a	n/a	n/a	n/a	n/a	n/a	n/a	n/a	n/a	n/a	n/a	n/a	n/a	n/a	n/a	B4_05.jpg	500	0	612350	-1	612350	0	TrialProc1	B4HighSmallEDBlockList	2500	0	609851	0	609851	0	609851	2499	d	857	610708	41.986
45	2.5	000_R01_VB_allProc	43	1	"<?xml version=""1.0""?>\n<Clock xmlns:dt=""urn:schemas-microsoft-com:datatypes""><Description dt:dt=""string"">E-Prime Primary Realtime Clock</Description><StartTime><Timestamp dt:dt=""int"">0</Timestamp><DateUtc dt:dt=""string"">2019-02-26T21:17:00Z</DateUtc></StartTime><FrequencyChanges><FrequencyChange><Frequency dt:dt=""r8"">3020400</Frequency><Timestamp dt:dt=""r8"">1808513083333</Timestamp><Current dt:dt=""r8"">0</Current><DateUtc dt:dt=""string"">2019-02-26T21:17:00Z</DateUtc></FrequencyChange></FrequencyChanges></Clock>\n"	000_R01_VB_allProc-43-1	60.022	1.0.0.185	1	332465284	Professional	2.0.10.356	2.0.10.356	02-26-2019	2/26/2019 9:17:00 PM	16:17:00	2.0.10.252	3	0	0	567867	7	567867	3998	-999999	757289	-3	727808	0	Run4Proc	3	1	3	RunList	2	HighSmallED	8000	0	615849	0	615849	0	615849	0	B4HighSmallEDBlockProc	n/a	n/a	n/a	n/a	n/a	n/a	n/a	n/a	n/a	2.0	1.0	2.0	n/a	n/a	n/a	Run4BlockList	6	n/a	n/a	n/a	n/a	n/a	n/a	n/a	n/a	n/a	n/a	n/a	n/a	n/a	n/a	n/a	n/a	n/a	n/a	n/a	n/a	n/a	n/a	n/a	n/a	6.0	1.0	6.0	n/a	n/a	n/a	n/a	n/a	n/a	n/a	n/a	n/a	n/a	n/a	n/a	n/a	n/a	n/a	n/a	n/a	n/a	n/a	n/a	n/a	n/a	n/a	n/a	n/a	n/a	n/a	n/a	n/a	n/a	n/a	n/a	n/a	n/a	n/a	n/a	n/a	n/a	n/a	n/a	n/a	n/a	n/a	n/a	n/a	n/a	n/a	n/a	n/a	n/a	n/a	n/a	n/a	n/a	n/a	n/a	n/a	n/a	n/a	n/a	n/a	n/a	n/a	B4_06.jpg	500	0	615349	-1	615349	0	TrialProc1	B4HighSmallEDBlockList	2500	0	612850	0	612850	0	612850	2499	d	858	613708	44.985
56	2.5	000_R01_VB_allProc	43	1	"<?xml version=""1.0""?>\n<Clock xmlns:dt=""urn:schemas-microsoft-com:datatypes""><Description dt:dt=""string"">E-Prime Primary Realtime Clock</Description><StartTime><Timestamp dt:dt=""int"">0</Timestamp><DateUtc dt:dt=""string"">2019-02-26T21:17:00Z</DateUtc></StartTime><FrequencyChanges><FrequencyChange><Frequency dt:dt=""r8"">3020400</Frequency><Timestamp dt:dt=""r8"">1808513083333</Timestamp><Current dt:dt=""r8"">0</Current><DateUtc dt:dt=""string"">2019-02-26T21:17:00Z</DateUtc></FrequencyChange></FrequencyChanges></Clock>\n"	000_R01_VB_allProc-43-1	60.022	1.0.0.185	1	332465284	Professional	2.0.10.356	2.0.10.356	02-26-2019	2/26/2019 9:17:00 PM	16:17:00	2.0.10.252	3	0	0	567867	7	567867	3998	-999999	757289	-3	727808	0	Run4Proc	3	1	3	RunList	3	LowLargeED	8000	0	641839	0	641839	-1	641839	0	C4LowLargeEDBlockProc	n/a	n/a	n/a	n/a	n/a	n/a	n/a	n/a	n/a	3.0	1.0	3.0	n/a	n/a	n/a	Run4BlockList	1	n/a	n/a	n/a	n/a	n/a	n/a	n/a	n/a	n/a	n/a	n/a	n/a	n/a	n/a	n/a	n/a	n/a	n/a	n/a	n/a	n/a	n/a	n/a	n/a	n/a	n/a	n/a	n/a	n/a	n/a	n/a	n/a	n/a	n/a	n/a	n/a	n/a	n/a	n/a	1.0	1.0	1.0	n/a	n/a	n/a	n/a	n/a	n/a	n/a	n/a	n/a	n/a	n/a	n/a	n/a	n/a	n/a	n/a	n/a	n/a	n/a	n/a	n/a	n/a	n/a	n/a	n/a	n/a	n/a	n/a	n/a	n/a	n/a	n/a	n/a	n/a	n/a	n/a	n/a	n/a	n/a	n/a	n/a	n/a	n/a	n/a	n/a	n/a	n/a	n/a	C4_01.jpg	500	0	626345	-1	626345	0	TrialProc1	C4LowLargeEDBlockList	2500	0	623846	0	623846	-3	623846	2499	c	1606	625452	55.981
59	2.5	000_R01_VB_allProc	43	1	"<?xml version=""1.0""?>\n<Clock xmlns:dt=""urn:schemas-microsoft-com:datatypes""><Description dt:dt=""string"">E-Prime Primary Realtime Clock</Description><StartTime><Timestamp dt:dt=""int"">0</Timestamp><DateUtc dt:dt=""string"">2019-02-26T21:17:00Z</DateUtc></StartTime><FrequencyChanges><FrequencyChange><Frequency dt:dt=""r8"">3020400</Frequency><Timestamp dt:dt=""r8"">1808513083333</Timestamp><Current dt:dt=""r8"">0</Current><DateUtc dt:dt=""string"">2019-02-26T21:17:00Z</DateUtc></FrequencyChange></FrequencyChanges></Clock>\n"	000_R01_VB_allProc-43-1	60.022	1.0.0.185	1	332465284	Professional	2.0.10.356	2.0.10.356	02-26-2019	2/26/2019 9:17:00 PM	16:17:00	2.0.10.252	3	0	0	567867	7	567867	3998	-999999	757289	-3	727808	0	Run4Proc	3	1	3	RunList	3	LowLargeED	8000	0	641839	0	641839	-1	641839	0	C4LowLargeEDBlockProc	n/a	n/a	n/a	n/a	n/a	n/a	n/a	n/a	n/a	3.0	1.0	3.0	n/a	n/a	n/a	Run4BlockList	2	n/a	n/a	n/a	n/a	n/a	n/a	n/a	n/a	n/a	n/a	n/a	n/a	n/a	n/a	n/a	n/a	n/a	n/a	n/a	n/a	n/a	n/a	n/a	n/a	n/a	n/a	n/a	n/a	n/a	n/a	n/a	n/a	n/a	n/a	n/a	n/a	n/a	n/a	n/a	2.0	1.0	2.0	n/a	n/a	n/a	n/a	n/a	n/a	n/a	n/a	n/a	n/a	n/a	n/a	n/a	n/a	n/a	n/a	n/a	n/a	n/a	n/a	n/a	n/a	n/a	n/a	n/a	n/a	n/a	n/a	n/a	n/a	n/a	n/a	n/a	n/a	n/a	n/a	n/a	n/a	n/a	n/a	n/a	n/a	n/a	n/a	n/a	n/a	n/a	n/a	C4_02.jpg	500	0	629344	-1	629344	0	TrialProc1	C4LowLargeEDBlockList	2500	0	626845	0	626845	0	626845	2499	d	1335	628180	58.98
62	2.5	000_R01_VB_allProc	43	1	"<?xml version=""1.0""?>\n<Clock xmlns:dt=""urn:schemas-microsoft-com:datatypes""><Description dt:dt=""string"">E-Prime Primary Realtime Clock</Description><StartTime><Timestamp dt:dt=""int"">0</Timestamp><DateUtc dt:dt=""string"">2019-02-26T21:17:00Z</DateUtc></StartTime><FrequencyChanges><FrequencyChange><Frequency dt:dt=""r8"">3020400</Frequency><Timestamp dt:dt=""r8"">1808513083333</Timestamp><Current dt:dt=""r8"">0</Current><DateUtc dt:dt=""string"">2019-02-26T21:17:00Z</DateUtc></FrequencyChange></FrequencyChanges></Clock>\n"	000_R01_VB_allProc-43-1	60.022	1.0.0.185	1	332465284	Professional	2.0.10.356	2.0.10.356	02-26-2019	2/26/2019 9:17:00 PM	16:17:00	2.0.10.252	3	0	0	567867	7	567867	3998	-999999	757289	-3	727808	0	Run4Proc	3	1	3	RunList	3	LowLargeED	8000	0	641839	0	641839	-1	641839	0	C4LowLargeEDBlockProc	n/a	n/a	n/a	n/a	n/a	n/a	n/a	n/a	n/a	3.0	1.0	3.0	n/a	n/a	n/a	Run4BlockList	3	n/a	n/a	n/a	n/a	n/a	n/a	n/a	n/a	n/a	n/a	n/a	n/a	n/a	n/a	n/a	n/a	n/a	n/a	n/a	n/a	n/a	n/a	n/a	n/a	n/a	n/a	n/a	n/a	n/a	n/a	n/a	n/a	n/a	n/a	n/a	n/a	n/a	n/a	n/a	3.0	1.0	3.0	n/a	n/a	n/a	n/a	n/a	n/a	n/a	n/a	n/a	n/a	n/a	n/a	n/a	n/a	n/a	n/a	n/a	n/a	n/a	n/a	n/a	n/a	n/a	n/a	n/a	n/a	n/a	n/a	n/a	n/a	n/a	n/a	n/a	n/a	n/a	n/a	n/a	n/a	n/a	n/a	n/a	n/a	n/a	n/a	n/a	n/a	n/a	n/a	C4_03.jpg	500	0	632343	-1	632343	0	TrialProc1	C4LowLargeEDBlockList	2500	0	629844	0	629844	0	629844	2499	c	976	630820	61.979
65	2.5	000_R01_VB_allProc	43	1	"<?xml version=""1.0""?>\n<Clock xmlns:dt=""urn:schemas-microsoft-com:datatypes""><Description dt:dt=""string"">E-Prime Primary Realtime Clock</Description><StartTime><Timestamp dt:dt=""int"">0</Timestamp><DateUtc dt:dt=""string"">2019-02-26T21:17:00Z</DateUtc></StartTime><FrequencyChanges><FrequencyChange><Frequency dt:dt=""r8"">3020400</Frequency><Timestamp dt:dt=""r8"">1808513083333</Timestamp><Current dt:dt=""r8"">0</Current><DateUtc dt:dt=""string"">2019-02-26T21:17:00Z</DateUtc></FrequencyChange></FrequencyChanges></Clock>\n"	000_R01_VB_allProc-43-1	60.022	1.0.0.185	1	332465284	Professional	2.0.10.356	2.0.10.356	02-26-2019	2/26/2019 9:17:00 PM	16:17:00	2.0.10.252	3	0	0	567867	7	567867	3998	-999999	757289	-3	727808	0	Run4Proc	3	1	3	RunList	3	LowLargeED	8000	0	641839	0	641839	-1	641839	0	C4LowLargeEDBlockProc	n/a	n/a	n/a	n/a	n/a	n/a	n/a	n/a	n/a	3.0	1.0	3.0	n/a	n/a	n/a	Run4BlockList	4	n/a	n/a	n/a	n/a	n/a	n/a	n/a	n/a	n/a	n/a	n/a	n/a	n/a	n/a	n/a	n/a	n/a	n/a	n/a	n/a	n/a	n/a	n/a	n/a	n/a	n/a	n/a	n/a	n/a	n/a	n/a	n/a	n/a	n/a	n/a	n/a	n/a	n/a	n/a	4.0	1.0	4.0	n/a	n/a	n/a	n/a	n/a	n/a	n/a	n/a	n/a	n/a	n/a	n/a	n/a	n/a	n/a	n/a	n/a	n/a	n/a	n/a	n/a	n/a	n/a	n/a	n/a	n/a	n/a	n/a	n/a	n/a	n/a	n/a	n/a	n/a	n/a	n/a	n/a	n/a	n/a	n/a	n/a	n/a	n/a	n/a	n/a	n/a	n/a	n/a	C4_04.jpg	500	0	635342	-1	635342	0	TrialProc1	C4LowLargeEDBlockList	2500	0	632843	0	632843	0	632843	2499	c	1153	633996	64.97800000000001
68	2.5	000_R01_VB_allProc	43	1	"<?xml version=""1.0""?>\n<Clock xmlns:dt=""urn:schemas-microsoft-com:datatypes""><Description dt:dt=""string"">E-Prime Primary Realtime Clock</Description><StartTime><Timestamp dt:dt=""int"">0</Timestamp><DateUtc dt:dt=""string"">2019-02-26T21:17:00Z</DateUtc></StartTime><FrequencyChanges><FrequencyChange><Frequency dt:dt=""r8"">3020400</Frequency><Timestamp dt:dt=""r8"">1808513083333</Timestamp><Current dt:dt=""r8"">0</Current><DateUtc dt:dt=""string"">2019-02-26T21:17:00Z</DateUtc></FrequencyChange></FrequencyChanges></Clock>\n"	000_R01_VB_allProc-43-1	60.022	1.0.0.185	1	332465284	Professional	2.0.10.356	2.0.10.356	02-26-2019	2/26/2019 9:17:00 PM	16:17:00	2.0.10.252	3	0	0	567867	7	567867	3998	-999999	757289	-3	727808	0	Run4Proc	3	1	3	RunList	3	LowLargeED	8000	0	641839	0	641839	-1	641839	0	C4LowLargeEDBlockProc	n/a	n/a	n/a	n/a	n/a	n/a	n/a	n/a	n/a	3.0	1.0	3.0	n/a	n/a	n/a	Run4BlockList	5	n/a	n/a	n/a	n/a	n/a	n/a	n/a	n/a	n/a	n/a	n/a	n/a	n/a	n/a	n/a	n/a	n/a	n/a	n/a	n/a	n/a	n/a	n/a	n/a	n/a	n/a	n/a	n/a	n/a	n/a	n/a	n/a	n/a	n/a	n/a	n/a	n/a	n/a	n/a	5.0	1.0	5.0	n/a	n/a	n/a	n/a	n/a	n/a	n/a	n/a	n/a	n/a	n/a	n/a	n/a	n/a	n/a	n/a	n/a	n/a	n/a	n/a	n/a	n/a	n/a	n/a	n/a	n/a	n/a	n/a	n/a	n/a	n/a	n/a	n/a	n/a	n/a	n/a	n/a	n/a	n/a	n/a	n/a	n/a	n/a	n/a	n/a	n/a	n/a	n/a	C4_05.jpg	500	0	638341	-1	638341	0	TrialProc1	C4LowLargeEDBlockList	2500	0	635842	0	635842	0	635842	2499	c	1666	637508	67.977
71	2.5	000_R01_VB_allProc	43	1	"<?xml version=""1.0""?>\n<Clock xmlns:dt=""urn:schemas-microsoft-com:datatypes""><Description dt:dt=""string"">E-Prime Primary Realtime Clock</Description><StartTime><Timestamp dt:dt=""int"">0</Timestamp><DateUtc dt:dt=""string"">2019-02-26T21:17:00Z</DateUtc></StartTime><FrequencyChanges><FrequencyChange><Frequency dt:dt=""r8"">3020400</Frequency><Timestamp dt:dt=""r8"">1808513083333</Timestamp><Current dt:dt=""r8"">0</Current><DateUtc dt:dt=""string"">2019-02-26T21:17:00Z</DateUtc></FrequencyChange></FrequencyChanges></Clock>\n"	000_R01_VB_allProc-43-1	60.022	1.0.0.185	1	332465284	Professional	2.0.10.356	2.0.10.356	02-26-2019	2/26/2019 9:17:00 PM	16:17:00	2.0.10.252	3	0	0	567867	7	567867	3998	-999999	757289	-3	727808	0	Run4Proc	3	1	3	RunList	3	LowLargeED	8000	0	641839	0	641839	-1	641839	0	C4LowLargeEDBlockProc	n/a	n/a	n/a	n/a	n/a	n/a	n/a	n/a	n/a	3.0	1.0	3.0	n/a	n/a	n/a	Run4BlockList	6	n/a	n/a	n/a	n/a	n/a	n/a	n/a	n/a	n/a	n/a	n/a	n/a	n/a	n/a	n/a	n/a	n/a	n/a	n/a	n/a	n/a	n/a	n/a	n/a	n/a	n/a	n/a	n/a	n/a	n/a	n/a	n/a	n/a	n/a	n/a	n/a	n/a	n/a	n/a	6.0	1.0	6.0	n/a	n/a	n/a	n/a	n/a	n/a	n/a	n/a	n/a	n/a	n/a	n/a	n/a	n/a	n/a	n/a	n/a	n/a	n/a	n/a	n/a	n/a	n/a	n/a	n/a	n/a	n/a	n/a	n/a	n/a	n/a	n/a	n/a	n/a	n/a	n/a	n/a	n/a	n/a	n/a	n/a	n/a	n/a	n/a	n/a	n/a	n/a	n/a	C4_06.jpg	500	0	641340	0	641340	0	TrialProc1	C4LowLargeEDBlockList	2500	1	638841	1	638841	-1	638840	2500	d	1212	640052	70.975
82	2.5	000_R01_VB_allProc	43	1	"<?xml version=""1.0""?>\n<Clock xmlns:dt=""urn:schemas-microsoft-com:datatypes""><Description dt:dt=""string"">E-Prime Primary Realtime Clock</Description><StartTime><Timestamp dt:dt=""int"">0</Timestamp><DateUtc dt:dt=""string"">2019-02-26T21:17:00Z</DateUtc></StartTime><FrequencyChanges><FrequencyChange><Frequency dt:dt=""r8"">3020400</Frequency><Timestamp dt:dt=""r8"">1808513083333</Timestamp><Current dt:dt=""r8"">0</Current><DateUtc dt:dt=""string"">2019-02-26T21:17:00Z</DateUtc></FrequencyChange></FrequencyChanges></Clock>\n"	000_R01_VB_allProc-43-1	60.022	1.0.0.185	1	332465284	Professional	2.0.10.356	2.0.10.356	02-26-2019	2/26/2019 9:17:00 PM	16:17:00	2.0.10.252	3	0	0	567867	7	567867	3998	-999999	757289	-3	727808	0	Run4Proc	3	1	3	RunList	4	OfficeLarge	8000	0	667830	0	667830	0	667830	0	E4OfficeLargeBlockProc	n/a	n/a	n/a	n/a	n/a	n/a	n/a	n/a	n/a	4.0	1.0	4.0	n/a	n/a	n/a	Run4BlockList	1	n/a	n/a	n/a	n/a	n/a	n/a	n/a	n/a	n/a	n/a	n/a	n/a	n/a	n/a	n/a	n/a	n/a	n/a	n/a	n/a	n/a	n/a	n/a	n/a	n/a	n/a	n/a	n/a	n/a	n/a	n/a	n/a	n/a	n/a	n/a	n/a	n/a	n/a	n/a	n/a	n/a	n/a	n/a	n/a	n/a	n/a	n/a	n/a	n/a	n/a	n/a	n/a	n/a	n/a	n/a	n/a	n/a	n/a	n/a	n/a	n/a	n/a	n/a	n/a	n/a	n/a	n/a	n/a	n/a	1.0	1.0	1.0	n/a	n/a	n/a	n/a	n/a	n/a	n/a	n/a	n/a	n/a	n/a	n/a	n/a	n/a	n/a	n/a	n/a	n/a	E4_01.jpg	500	1	652336	-1	652335	0	TrialProc1	E4OfficeLargeBlockList	2500	0	649837	0	649836	-3	649836	2499	c	1432	651268	81.971
85	2.5	000_R01_VB_allProc	43	1	"<?xml version=""1.0""?>\n<Clock xmlns:dt=""urn:schemas-microsoft-com:datatypes""><Description dt:dt=""string"">E-Prime Primary Realtime Clock</Description><StartTime><Timestamp dt:dt=""int"">0</Timestamp><DateUtc dt:dt=""string"">2019-02-26T21:17:00Z</DateUtc></StartTime><FrequencyChanges><FrequencyChange><Frequency dt:dt=""r8"">3020400</Frequency><Timestamp dt:dt=""r8"">1808513083333</Timestamp><Current dt:dt=""r8"">0</Current><DateUtc dt:dt=""string"">2019-02-26T21:17:00Z</DateUtc></FrequencyChange></FrequencyChanges></Clock>\n"	000_R01_VB_allProc-43-1	60.022	1.0.0.185	1	332465284	Professional	2.0.10.356	2.0.10.356	02-26-2019	2/26/2019 9:17:00 PM	16:17:00	2.0.10.252	3	0	0	567867	7	567867	3998	-999999	757289	-3	727808	0	Run4Proc	3	1	3	RunList	4	OfficeLarge	8000	0	667830	0	667830	0	667830	0	E4OfficeLargeBlockProc	n/a	n/a	n/a	n/a	n/a	n/a	n/a	n/a	n/a	4.0	1.0	4.0	n/a	n/a	n/a	Run4BlockList	2	n/a	n/a	n/a	n/a	n/a	n/a	n/a	n/a	n/a	n/a	n/a	n/a	n/a	n/a	n/a	n/a	n/a	n/a	n/a	n/a	n/a	n/a	n/a	n/a	n/a	n/a	n/a	n/a	n/a	n/a	n/a	n/a	n/a	n/a	n/a	n/a	n/a	n/a	n/a	n/a	n/a	n/a	n/a	n/a	n/a	n/a	n/a	n/a	n/a	n/a	n/a	n/a	n/a	n/a	n/a	n/a	n/a	n/a	n/a	n/a	n/a	n/a	n/a	n/a	n/a	n/a	n/a	n/a	n/a	2.0	1.0	2.0	n/a	n/a	n/a	n/a	n/a	n/a	n/a	n/a	n/a	n/a	n/a	n/a	n/a	n/a	n/a	n/a	n/a	n/a	E4_02.jpg	500	0	655334	-1	655334	0	TrialProc1	E4OfficeLargeBlockList	2500	0	652835	0	652835	0	652835	2499	c	689	653524	84.97
88	2.5	000_R01_VB_allProc	43	1	"<?xml version=""1.0""?>\n<Clock xmlns:dt=""urn:schemas-microsoft-com:datatypes""><Description dt:dt=""string"">E-Prime Primary Realtime Clock</Description><StartTime><Timestamp dt:dt=""int"">0</Timestamp><DateUtc dt:dt=""string"">2019-02-26T21:17:00Z</DateUtc></StartTime><FrequencyChanges><FrequencyChange><Frequency dt:dt=""r8"">3020400</Frequency><Timestamp dt:dt=""r8"">1808513083333</Timestamp><Current dt:dt=""r8"">0</Current><DateUtc dt:dt=""string"">2019-02-26T21:17:00Z</DateUtc></FrequencyChange></FrequencyChanges></Clock>\n"	000_R01_VB_allProc-43-1	60.022	1.0.0.185	1	332465284	Professional	2.0.10.356	2.0.10.356	02-26-2019	2/26/2019 9:17:00 PM	16:17:00	2.0.10.252	3	0	0	567867	7	567867	3998	-999999	757289	-3	727808	0	Run4Proc	3	1	3	RunList	4	OfficeLarge	8000	0	667830	0	667830	0	667830	0	E4OfficeLargeBlockProc	n/a	n/a	n/a	n/a	n/a	n/a	n/a	n/a	n/a	4.0	1.0	4.0	n/a	n/a	n/a	Run4BlockList	3	n/a	n/a	n/a	n/a	n/a	n/a	n/a	n/a	n/a	n/a	n/a	n/a	n/a	n/a	n/a	n/a	n/a	n/a	n/a	n/a	n/a	n/a	n/a	n/a	n/a	n/a	n/a	n/a	n/a	n/a	n/a	n/a	n/a	n/a	n/a	n/a	n/a	n/a	n/a	n/a	n/a	n/a	n/a	n/a	n/a	n/a	n/a	n/a	n/a	n/a	n/a	n/a	n/a	n/a	n/a	n/a	n/a	n/a	n/a	n/a	n/a	n/a	n/a	n/a	n/a	n/a	n/a	n/a	n/a	3.0	1.0	3.0	n/a	n/a	n/a	n/a	n/a	n/a	n/a	n/a	n/a	n/a	n/a	n/a	n/a	n/a	n/a	n/a	n/a	n/a	E4_03.jpg	500	0	658333	-1	658333	0	TrialProc1	E4OfficeLargeBlockList	2500	0	655834	0	655834	0	655834	2499	c	801	656635	87.969
91	2.5	000_R01_VB_allProc	43	1	"<?xml version=""1.0""?>\n<Clock xmlns:dt=""urn:schemas-microsoft-com:datatypes""><Description dt:dt=""string"">E-Prime Primary Realtime Clock</Description><StartTime><Timestamp dt:dt=""int"">0</Timestamp><DateUtc dt:dt=""string"">2019-02-26T21:17:00Z</DateUtc></StartTime><FrequencyChanges><FrequencyChange><Frequency dt:dt=""r8"">3020400</Frequency><Timestamp dt:dt=""r8"">1808513083333</Timestamp><Current dt:dt=""r8"">0</Current><DateUtc dt:dt=""string"">2019-02-26T21:17:00Z</DateUtc></FrequencyChange></FrequencyChanges></Clock>\n"	000_R01_VB_allProc-43-1	60.022	1.0.0.185	1	332465284	Professional	2.0.10.356	2.0.10.356	02-26-2019	2/26/2019 9:17:00 PM	16:17:00	2.0.10.252	3	0	0	567867	7	567867	3998	-999999	757289	-3	727808	0	Run4Proc	3	1	3	RunList	4	OfficeLarge	8000	0	667830	0	667830	0	667830	0	E4OfficeLargeBlockProc	n/a	n/a	n/a	n/a	n/a	n/a	n/a	n/a	n/a	4.0	1.0	4.0	n/a	n/a	n/a	Run4BlockList	4	n/a	n/a	n/a	n/a	n/a	n/a	n/a	n/a	n/a	n/a	n/a	n/a	n/a	n/a	n/a	n/a	n/a	n/a	n/a	n/a	n/a	n/a	n/a	n/a	n/a	n/a	n/a	n/a	n/a	n/a	n/a	n/a	n/a	n/a	n/a	n/a	n/a	n/a	n/a	n/a	n/a	n/a	n/a	n/a	n/a	n/a	n/a	n/a	n/a	n/a	n/a	n/a	n/a	n/a	n/a	n/a	n/a	n/a	n/a	n/a	n/a	n/a	n/a	n/a	n/a	n/a	n/a	n/a	n/a	4.0	1.0	4.0	n/a	n/a	n/a	n/a	n/a	n/a	n/a	n/a	n/a	n/a	n/a	n/a	n/a	n/a	n/a	n/a	n/a	n/a	E4_04.jpg	500	0	661332	-1	661332	0	TrialProc1	E4OfficeLargeBlockList	2500	0	658833	0	658833	0	658833	2499	c	810	659643	90.968
94	2.5	000_R01_VB_allProc	43	1	"<?xml version=""1.0""?>\n<Clock xmlns:dt=""urn:schemas-microsoft-com:datatypes""><Description dt:dt=""string"">E-Prime Primary Realtime Clock</Description><StartTime><Timestamp dt:dt=""int"">0</Timestamp><DateUtc dt:dt=""string"">2019-02-26T21:17:00Z</DateUtc></StartTime><FrequencyChanges><FrequencyChange><Frequency dt:dt=""r8"">3020400</Frequency><Timestamp dt:dt=""r8"">1808513083333</Timestamp><Current dt:dt=""r8"">0</Current><DateUtc dt:dt=""string"">2019-02-26T21:17:00Z</DateUtc></FrequencyChange></FrequencyChanges></Clock>\n"	000_R01_VB_allProc-43-1	60.022	1.0.0.185	1	332465284	Professional	2.0.10.356	2.0.10.356	02-26-2019	2/26/2019 9:17:00 PM	16:17:00	2.0.10.252	3	0	0	567867	7	567867	3998	-999999	757289	-3	727808	0	Run4Proc	3	1	3	RunList	4	OfficeLarge	8000	0	667830	0	667830	0	667830	0	E4OfficeLargeBlockProc	n/a	n/a	n/a	n/a	n/a	n/a	n/a	n/a	n/a	4.0	1.0	4.0	n/a	n/a	n/a	Run4BlockList	5	n/a	n/a	n/a	n/a	n/a	n/a	n/a	n/a	n/a	n/a	n/a	n/a	n/a	n/a	n/a	n/a	n/a	n/a	n/a	n/a	n/a	n/a	n/a	n/a	n/a	n/a	n/a	n/a	n/a	n/a	n/a	n/a	n/a	n/a	n/a	n/a	n/a	n/a	n/a	n/a	n/a	n/a	n/a	n/a	n/a	n/a	n/a	n/a	n/a	n/a	n/a	n/a	n/a	n/a	n/a	n/a	n/a	n/a	n/a	n/a	n/a	n/a	n/a	n/a	n/a	n/a	n/a	n/a	n/a	5.0	1.0	5.0	n/a	n/a	n/a	n/a	n/a	n/a	n/a	n/a	n/a	n/a	n/a	n/a	n/a	n/a	n/a	n/a	n/a	n/a	E4_05.jpg	500	0	664331	-1	664331	0	TrialProc1	E4OfficeLargeBlockList	2500	0	661832	0	661832	0	661832	2499	c	939	662771	93.967
97	2.5	000_R01_VB_allProc	43	1	"<?xml version=""1.0""?>\n<Clock xmlns:dt=""urn:schemas-microsoft-com:datatypes""><Description dt:dt=""string"">E-Prime Primary Realtime Clock</Description><StartTime><Timestamp dt:dt=""int"">0</Timestamp><DateUtc dt:dt=""string"">2019-02-26T21:17:00Z</DateUtc></StartTime><FrequencyChanges><FrequencyChange><Frequency dt:dt=""r8"">3020400</Frequency><Timestamp dt:dt=""r8"">1808513083333</Timestamp><Current dt:dt=""r8"">0</Current><DateUtc dt:dt=""string"">2019-02-26T21:17:00Z</DateUtc></FrequencyChange></FrequencyChanges></Clock>\n"	000_R01_VB_allProc-43-1	60.022	1.0.0.185	1	332465284	Professional	2.0.10.356	2.0.10.356	02-26-2019	2/26/2019 9:17:00 PM	16:17:00	2.0.10.252	3	0	0	567867	7	567867	3998	-999999	757289	-3	727808	0	Run4Proc	3	1	3	RunList	4	OfficeLarge	8000	0	667830	0	667830	0	667830	0	E4OfficeLargeBlockProc	n/a	n/a	n/a	n/a	n/a	n/a	n/a	n/a	n/a	4.0	1.0	4.0	n/a	n/a	n/a	Run4BlockList	6	n/a	n/a	n/a	n/a	n/a	n/a	n/a	n/a	n/a	n/a	n/a	n/a	n/a	n/a	n/a	n/a	n/a	n/a	n/a	n/a	n/a	n/a	n/a	n/a	n/a	n/a	n/a	n/a	n/a	n/a	n/a	n/a	n/a	n/a	n/a	n/a	n/a	n/a	n/a	n/a	n/a	n/a	n/a	n/a	n/a	n/a	n/a	n/a	n/a	n/a	n/a	n/a	n/a	n/a	n/a	n/a	n/a	n/a	n/a	n/a	n/a	n/a	n/a	n/a	n/a	n/a	n/a	n/a	n/a	6.0	1.0	6.0	n/a	n/a	n/a	n/a	n/a	n/a	n/a	n/a	n/a	n/a	n/a	n/a	n/a	n/a	n/a	n/a	n/a	n/a	E4_06.jpg	500	0	667330	-1	667330	0	TrialProc1	E4OfficeLargeBlockList	2500	0	664831	0	664831	0	664831	2499	c	1980	666811	96.966
108	2.5	000_R01_VB_allProc	43	1	"<?xml version=""1.0""?>\n<Clock xmlns:dt=""urn:schemas-microsoft-com:datatypes""><Description dt:dt=""string"">E-Prime Primary Realtime Clock</Description><StartTime><Timestamp dt:dt=""int"">0</Timestamp><DateUtc dt:dt=""string"">2019-02-26T21:17:00Z</DateUtc></StartTime><FrequencyChanges><FrequencyChange><Frequency dt:dt=""r8"">3020400</Frequency><Timestamp dt:dt=""r8"">1808513083333</Timestamp><Current dt:dt=""r8"">0</Current><DateUtc dt:dt=""string"">2019-02-26T21:17:00Z</DateUtc></FrequencyChange></FrequencyChanges></Clock>\n"	000_R01_VB_allProc-43-1	60.022	1.0.0.185	1	332465284	Professional	2.0.10.356	2.0.10.356	02-26-2019	2/26/2019 9:17:00 PM	16:17:00	2.0.10.252	3	0	0	567867	7	567867	3998	-999999	757289	-3	727808	0	Run4Proc	3	1	3	RunList	5	LowSmallED	8000	0	693820	0	693820	0	693820	0	D4LowSmallEDBlockProc	n/a	n/a	n/a	n/a	n/a	n/a	n/a	n/a	n/a	5.0	1.0	5.0	n/a	n/a	n/a	Run4BlockList	1	n/a	n/a	n/a	n/a	n/a	n/a	n/a	n/a	n/a	n/a	n/a	n/a	n/a	n/a	n/a	n/a	n/a	n/a	n/a	n/a	n/a	n/a	n/a	n/a	n/a	n/a	n/a	n/a	n/a	n/a	n/a	n/a	n/a	n/a	n/a	n/a	n/a	n/a	n/a	n/a	n/a	n/a	n/a	n/a	n/a	n/a	n/a	n/a	n/a	n/a	n/a	n/a	n/a	n/a	1.0	1.0	1.0	n/a	n/a	n/a	n/a	n/a	n/a	n/a	n/a	n/a	n/a	n/a	n/a	n/a	n/a	n/a	n/a	n/a	n/a	n/a	n/a	n/a	n/a	n/a	n/a	n/a	n/a	n/a	n/a	n/a	n/a	n/a	n/a	n/a	D4_01.jpg	500	0	678326	-1	678326	0	TrialProc1	D4LowSmallEDBlockList	2500	0	675827	0	675827	-3	675827	2499	c	912	676739	107.962
111	2.5	000_R01_VB_allProc	43	1	"<?xml version=""1.0""?>\n<Clock xmlns:dt=""urn:schemas-microsoft-com:datatypes""><Description dt:dt=""string"">E-Prime Primary Realtime Clock</Description><StartTime><Timestamp dt:dt=""int"">0</Timestamp><DateUtc dt:dt=""string"">2019-02-26T21:17:00Z</DateUtc></StartTime><FrequencyChanges><FrequencyChange><Frequency dt:dt=""r8"">3020400</Frequency><Timestamp dt:dt=""r8"">1808513083333</Timestamp><Current dt:dt=""r8"">0</Current><DateUtc dt:dt=""string"">2019-02-26T21:17:00Z</DateUtc></FrequencyChange></FrequencyChanges></Clock>\n"	000_R01_VB_allProc-43-1	60.022	1.0.0.185	1	332465284	Professional	2.0.10.356	2.0.10.356	02-26-2019	2/26/2019 9:17:00 PM	16:17:00	2.0.10.252	3	0	0	567867	7	567867	3998	-999999	757289	-3	727808	0	Run4Proc	3	1	3	RunList	5	LowSmallED	8000	0	693820	0	693820	0	693820	0	D4LowSmallEDBlockProc	n/a	n/a	n/a	n/a	n/a	n/a	n/a	n/a	n/a	5.0	1.0	5.0	n/a	n/a	n/a	Run4BlockList	2	n/a	n/a	n/a	n/a	n/a	n/a	n/a	n/a	n/a	n/a	n/a	n/a	n/a	n/a	n/a	n/a	n/a	n/a	n/a	n/a	n/a	n/a	n/a	n/a	n/a	n/a	n/a	n/a	n/a	n/a	n/a	n/a	n/a	n/a	n/a	n/a	n/a	n/a	n/a	n/a	n/a	n/a	n/a	n/a	n/a	n/a	n/a	n/a	n/a	n/a	n/a	n/a	n/a	n/a	2.0	1.0	2.0	n/a	n/a	n/a	n/a	n/a	n/a	n/a	n/a	n/a	n/a	n/a	n/a	n/a	n/a	n/a	n/a	n/a	n/a	n/a	n/a	n/a	n/a	n/a	n/a	n/a	n/a	n/a	n/a	n/a	n/a	n/a	n/a	n/a	D4_02.jpg	500	0	681325	-1	681325	0	TrialProc1	D4LowSmallEDBlockList	2500	0	678826	0	678826	0	678826	2499	d	2345	681171	110.961
114	2.5	000_R01_VB_allProc	43	1	"<?xml version=""1.0""?>\n<Clock xmlns:dt=""urn:schemas-microsoft-com:datatypes""><Description dt:dt=""string"">E-Prime Primary Realtime Clock</Description><StartTime><Timestamp dt:dt=""int"">0</Timestamp><DateUtc dt:dt=""string"">2019-02-26T21:17:00Z</DateUtc></StartTime><FrequencyChanges><FrequencyChange><Frequency dt:dt=""r8"">3020400</Frequency><Timestamp dt:dt=""r8"">1808513083333</Timestamp><Current dt:dt=""r8"">0</Current><DateUtc dt:dt=""string"">2019-02-26T21:17:00Z</DateUtc></FrequencyChange></FrequencyChanges></Clock>\n"	000_R01_VB_allProc-43-1	60.022	1.0.0.185	1	332465284	Professional	2.0.10.356	2.0.10.356	02-26-2019	2/26/2019 9:17:00 PM	16:17:00	2.0.10.252	3	0	0	567867	7	567867	3998	-999999	757289	-3	727808	0	Run4Proc	3	1	3	RunList	5	LowSmallED	8000	0	693820	0	693820	0	693820	0	D4LowSmallEDBlockProc	n/a	n/a	n/a	n/a	n/a	n/a	n/a	n/a	n/a	5.0	1.0	5.0	n/a	n/a	n/a	Run4BlockList	3	n/a	n/a	n/a	n/a	n/a	n/a	n/a	n/a	n/a	n/a	n/a	n/a	n/a	n/a	n/a	n/a	n/a	n/a	n/a	n/a	n/a	n/a	n/a	n/a	n/a	n/a	n/a	n/a	n/a	n/a	n/a	n/a	n/a	n/a	n/a	n/a	n/a	n/a	n/a	n/a	n/a	n/a	n/a	n/a	n/a	n/a	n/a	n/a	n/a	n/a	n/a	n/a	n/a	n/a	3.0	1.0	3.0	n/a	n/a	n/a	n/a	n/a	n/a	n/a	n/a	n/a	n/a	n/a	n/a	n/a	n/a	n/a	n/a	n/a	n/a	n/a	n/a	n/a	n/a	n/a	n/a	n/a	n/a	n/a	n/a	n/a	n/a	n/a	n/a	n/a	D4_03.jpg	500	0	684324	-1	684324	0	TrialProc1	D4LowSmallEDBlockList	2500	0	681825	0	681825	0	681825	2499	c	1066	682891	113.96
117	2.5	000_R01_VB_allProc	43	1	"<?xml version=""1.0""?>\n<Clock xmlns:dt=""urn:schemas-microsoft-com:datatypes""><Description dt:dt=""string"">E-Prime Primary Realtime Clock</Description><StartTime><Timestamp dt:dt=""int"">0</Timestamp><DateUtc dt:dt=""string"">2019-02-26T21:17:00Z</DateUtc></StartTime><FrequencyChanges><FrequencyChange><Frequency dt:dt=""r8"">3020400</Frequency><Timestamp dt:dt=""r8"">1808513083333</Timestamp><Current dt:dt=""r8"">0</Current><DateUtc dt:dt=""string"">2019-02-26T21:17:00Z</DateUtc></FrequencyChange></FrequencyChanges></Clock>\n"	000_R01_VB_allProc-43-1	60.022	1.0.0.185	1	332465284	Professional	2.0.10.356	2.0.10.356	02-26-2019	2/26/2019 9:17:00 PM	16:17:00	2.0.10.252	3	0	0	567867	7	567867	3998	-999999	757289	-3	727808	0	Run4Proc	3	1	3	RunList	5	LowSmallED	8000	0	693820	0	693820	0	693820	0	D4LowSmallEDBlockProc	n/a	n/a	n/a	n/a	n/a	n/a	n/a	n/a	n/a	5.0	1.0	5.0	n/a	n/a	n/a	Run4BlockList	4	n/a	n/a	n/a	n/a	n/a	n/a	n/a	n/a	n/a	n/a	n/a	n/a	n/a	n/a	n/a	n/a	n/a	n/a	n/a	n/a	n/a	n/a	n/a	n/a	n/a	n/a	n/a	n/a	n/a	n/a	n/a	n/a	n/a	n/a	n/a	n/a	n/a	n/a	n/a	n/a	n/a	n/a	n/a	n/a	n/a	n/a	n/a	n/a	n/a	n/a	n/a	n/a	n/a	n/a	4.0	1.0	4.0	n/a	n/a	n/a	n/a	n/a	n/a	n/a	n/a	n/a	n/a	n/a	n/a	n/a	n/a	n/a	n/a	n/a	n/a	n/a	n/a	n/a	n/a	n/a	n/a	n/a	n/a	n/a	n/a	n/a	n/a	n/a	n/a	n/a	D4_04.jpg	500	0	687323	-1	687323	0	TrialProc1	D4LowSmallEDBlockList	2500	0	684824	0	684824	0	684824	2499	c	955	685779	116.959
120	2.5	000_R01_VB_allProc	43	1	"<?xml version=""1.0""?>\n<Clock xmlns:dt=""urn:schemas-microsoft-com:datatypes""><Description dt:dt=""string"">E-Prime Primary Realtime Clock</Description><StartTime><Timestamp dt:dt=""int"">0</Timestamp><DateUtc dt:dt=""string"">2019-02-26T21:17:00Z</DateUtc></StartTime><FrequencyChanges><FrequencyChange><Frequency dt:dt=""r8"">3020400</Frequency><Timestamp dt:dt=""r8"">1808513083333</Timestamp><Current dt:dt=""r8"">0</Current><DateUtc dt:dt=""string"">2019-02-26T21:17:00Z</DateUtc></FrequencyChange></FrequencyChanges></Clock>\n"	000_R01_VB_allProc-43-1	60.022	1.0.0.185	1	332465284	Professional	2.0.10.356	2.0.10.356	02-26-2019	2/26/2019 9:17:00 PM	16:17:00	2.0.10.252	3	0	0	567867	7	567867	3998	-999999	757289	-3	727808	0	Run4Proc	3	1	3	RunList	5	LowSmallED	8000	0	693820	0	693820	0	693820	0	D4LowSmallEDBlockProc	n/a	n/a	n/a	n/a	n/a	n/a	n/a	n/a	n/a	5.0	1.0	5.0	n/a	n/a	n/a	Run4BlockList	5	n/a	n/a	n/a	n/a	n/a	n/a	n/a	n/a	n/a	n/a	n/a	n/a	n/a	n/a	n/a	n/a	n/a	n/a	n/a	n/a	n/a	n/a	n/a	n/a	n/a	n/a	n/a	n/a	n/a	n/a	n/a	n/a	n/a	n/a	n/a	n/a	n/a	n/a	n/a	n/a	n/a	n/a	n/a	n/a	n/a	n/a	n/a	n/a	n/a	n/a	n/a	n/a	n/a	n/a	5.0	1.0	5.0	n/a	n/a	n/a	n/a	n/a	n/a	n/a	n/a	n/a	n/a	n/a	n/a	n/a	n/a	n/a	n/a	n/a	n/a	n/a	n/a	n/a	n/a	n/a	n/a	n/a	n/a	n/a	n/a	n/a	n/a	n/a	n/a	n/a	D4_05.jpg	500	1	690322	-1	690321	0	TrialProc1	D4LowSmallEDBlockList	2500	0	687822	0	687822	-1	687822	2499	d	1373	689195	119.957
123	2.5	000_R01_VB_allProc	43	1	"<?xml version=""1.0""?>\n<Clock xmlns:dt=""urn:schemas-microsoft-com:datatypes""><Description dt:dt=""string"">E-Prime Primary Realtime Clock</Description><StartTime><Timestamp dt:dt=""int"">0</Timestamp><DateUtc dt:dt=""string"">2019-02-26T21:17:00Z</DateUtc></StartTime><FrequencyChanges><FrequencyChange><Frequency dt:dt=""r8"">3020400</Frequency><Timestamp dt:dt=""r8"">1808513083333</Timestamp><Current dt:dt=""r8"">0</Current><DateUtc dt:dt=""string"">2019-02-26T21:17:00Z</DateUtc></FrequencyChange></FrequencyChanges></Clock>\n"	000_R01_VB_allProc-43-1	60.022	1.0.0.185	1	332465284	Professional	2.0.10.356	2.0.10.356	02-26-2019	2/26/2019 9:17:00 PM	16:17:00	2.0.10.252	3	0	0	567867	7	567867	3998	-999999	757289	-3	727808	0	Run4Proc	3	1	3	RunList	5	LowSmallED	8000	0	693820	0	693820	0	693820	0	D4LowSmallEDBlockProc	n/a	n/a	n/a	n/a	n/a	n/a	n/a	n/a	n/a	5.0	1.0	5.0	n/a	n/a	n/a	Run4BlockList	6	n/a	n/a	n/a	n/a	n/a	n/a	n/a	n/a	n/a	n/a	n/a	n/a	n/a	n/a	n/a	n/a	n/a	n/a	n/a	n/a	n/a	n/a	n/a	n/a	n/a	n/a	n/a	n/a	n/a	n/a	n/a	n/a	n/a	n/a	n/a	n/a	n/a	n/a	n/a	n/a	n/a	n/a	n/a	n/a	n/a	n/a	n/a	n/a	n/a	n/a	n/a	n/a	n/a	n/a	6.0	1.0	6.0	n/a	n/a	n/a	n/a	n/a	n/a	n/a	n/a	n/a	n/a	n/a	n/a	n/a	n/a	n/a	n/a	n/a	n/a	n/a	n/a	n/a	n/a	n/a	n/a	n/a	n/a	n/a	n/a	n/a	n/a	n/a	n/a	n/a	D4_06.jpg	500	0	693320	-1	693320	0	TrialProc1	D4LowSmallEDBlockList	2500	0	690821	0	690821	0	690821	2499	c	830	691651	122.956
134	2.5	000_R01_VB_allProc	43	1	"<?xml version=""1.0""?>\n<Clock xmlns:dt=""urn:schemas-microsoft-com:datatypes""><Description dt:dt=""string"">E-Prime Primary Realtime Clock</Description><StartTime><Timestamp dt:dt=""int"">0</Timestamp><DateUtc dt:dt=""string"">2019-02-26T21:17:00Z</DateUtc></StartTime><FrequencyChanges><FrequencyChange><Frequency dt:dt=""r8"">3020400</Frequency><Timestamp dt:dt=""r8"">1808513083333</Timestamp><Current dt:dt=""r8"">0</Current><DateUtc dt:dt=""string"">2019-02-26T21:17:00Z</DateUtc></FrequencyChange></FrequencyChanges></Clock>\n"	000_R01_VB_allProc-43-1	60.022	1.0.0.185	1	332465284	Professional	2.0.10.356	2.0.10.356	02-26-2019	2/26/2019 9:17:00 PM	16:17:00	2.0.10.252	3	0	0	567867	7	567867	3998	-999999	757289	-3	727808	0	Run4Proc	3	1	3	RunList	6	HighLargeED	8000	0	719811	0	719811	0	719811	0	A4HighLargeEDBlockProc	n/a	n/a	n/a	n/a	n/a	n/a	n/a	n/a	n/a	6.0	1.0	6.0	n/a	n/a	n/a	Run4BlockList	1	n/a	n/a	n/a	n/a	n/a	n/a	n/a	n/a	n/a	1.0	1.0	1.0	n/a	n/a	n/a	n/a	n/a	n/a	n/a	n/a	n/a	n/a	n/a	n/a	n/a	n/a	n/a	n/a	n/a	n/a	n/a	n/a	n/a	n/a	n/a	n/a	n/a	n/a	n/a	n/a	n/a	n/a	n/a	n/a	n/a	n/a	n/a	n/a	n/a	n/a	n/a	n/a	n/a	n/a	n/a	n/a	n/a	n/a	n/a	n/a	n/a	n/a	n/a	n/a	n/a	n/a	n/a	n/a	n/a	n/a	n/a	n/a	n/a	n/a	n/a	n/a	n/a	n/a	n/a	n/a	n/a	n/a	n/a	n/a	n/a	n/a	n/a	n/a	n/a	n/a	A4_01.jpg	500	0	704316	-1	704316	0	TrialProc1	A4HighLargeEDBlockList	2500	0	701817	0	701817	-3	701817	2499	d	1250	703067	133.952
137	2.5	000_R01_VB_allProc	43	1	"<?xml version=""1.0""?>\n<Clock xmlns:dt=""urn:schemas-microsoft-com:datatypes""><Description dt:dt=""string"">E-Prime Primary Realtime Clock</Description><StartTime><Timestamp dt:dt=""int"">0</Timestamp><DateUtc dt:dt=""string"">2019-02-26T21:17:00Z</DateUtc></StartTime><FrequencyChanges><FrequencyChange><Frequency dt:dt=""r8"">3020400</Frequency><Timestamp dt:dt=""r8"">1808513083333</Timestamp><Current dt:dt=""r8"">0</Current><DateUtc dt:dt=""string"">2019-02-26T21:17:00Z</DateUtc></FrequencyChange></FrequencyChanges></Clock>\n"	000_R01_VB_allProc-43-1	60.022	1.0.0.185	1	332465284	Professional	2.0.10.356	2.0.10.356	02-26-2019	2/26/2019 9:17:00 PM	16:17:00	2.0.10.252	3	0	0	567867	7	567867	3998	-999999	757289	-3	727808	0	Run4Proc	3	1	3	RunList	6	HighLargeED	8000	0	719811	0	719811	0	719811	0	A4HighLargeEDBlockProc	n/a	n/a	n/a	n/a	n/a	n/a	n/a	n/a	n/a	6.0	1.0	6.0	n/a	n/a	n/a	Run4BlockList	2	n/a	n/a	n/a	n/a	n/a	n/a	n/a	n/a	n/a	2.0	1.0	2.0	n/a	n/a	n/a	n/a	n/a	n/a	n/a	n/a	n/a	n/a	n/a	n/a	n/a	n/a	n/a	n/a	n/a	n/a	n/a	n/a	n/a	n/a	n/a	n/a	n/a	n/a	n/a	n/a	n/a	n/a	n/a	n/a	n/a	n/a	n/a	n/a	n/a	n/a	n/a	n/a	n/a	n/a	n/a	n/a	n/a	n/a	n/a	n/a	n/a	n/a	n/a	n/a	n/a	n/a	n/a	n/a	n/a	n/a	n/a	n/a	n/a	n/a	n/a	n/a	n/a	n/a	n/a	n/a	n/a	n/a	n/a	n/a	n/a	n/a	n/a	n/a	n/a	n/a	A4_02.jpg	500	0	707315	-1	707315	0	TrialProc1	A4HighLargeEDBlockList	2500	0	704816	0	704816	0	704816	2499	d	715	705531	136.951
140	2.5	000_R01_VB_allProc	43	1	"<?xml version=""1.0""?>\n<Clock xmlns:dt=""urn:schemas-microsoft-com:datatypes""><Description dt:dt=""string"">E-Prime Primary Realtime Clock</Description><StartTime><Timestamp dt:dt=""int"">0</Timestamp><DateUtc dt:dt=""string"">2019-02-26T21:17:00Z</DateUtc></StartTime><FrequencyChanges><FrequencyChange><Frequency dt:dt=""r8"">3020400</Frequency><Timestamp dt:dt=""r8"">1808513083333</Timestamp><Current dt:dt=""r8"">0</Current><DateUtc dt:dt=""string"">2019-02-26T21:17:00Z</DateUtc></FrequencyChange></FrequencyChanges></Clock>\n"	000_R01_VB_allProc-43-1	60.022	1.0.0.185	1	332465284	Professional	2.0.10.356	2.0.10.356	02-26-2019	2/26/2019 9:17:00 PM	16:17:00	2.0.10.252	3	0	0	567867	7	567867	3998	-999999	757289	-3	727808	0	Run4Proc	3	1	3	RunList	6	HighLargeED	8000	0	719811	0	719811	0	719811	0	A4HighLargeEDBlockProc	n/a	n/a	n/a	n/a	n/a	n/a	n/a	n/a	n/a	6.0	1.0	6.0	n/a	n/a	n/a	Run4BlockList	3	n/a	n/a	n/a	n/a	n/a	n/a	n/a	n/a	n/a	3.0	1.0	3.0	n/a	n/a	n/a	n/a	n/a	n/a	n/a	n/a	n/a	n/a	n/a	n/a	n/a	n/a	n/a	n/a	n/a	n/a	n/a	n/a	n/a	n/a	n/a	n/a	n/a	n/a	n/a	n/a	n/a	n/a	n/a	n/a	n/a	n/a	n/a	n/a	n/a	n/a	n/a	n/a	n/a	n/a	n/a	n/a	n/a	n/a	n/a	n/a	n/a	n/a	n/a	n/a	n/a	n/a	n/a	n/a	n/a	n/a	n/a	n/a	n/a	n/a	n/a	n/a	n/a	n/a	n/a	n/a	n/a	n/a	n/a	n/a	n/a	n/a	n/a	n/a	n/a	n/a	A4_03.jpg	500	0	710314	-1	710314	0	TrialProc1	A4HighLargeEDBlockList	2500	0	707815	0	707815	0	707815	2499	d	804	708619	139.95
143	2.5	000_R01_VB_allProc	43	1	"<?xml version=""1.0""?>\n<Clock xmlns:dt=""urn:schemas-microsoft-com:datatypes""><Description dt:dt=""string"">E-Prime Primary Realtime Clock</Description><StartTime><Timestamp dt:dt=""int"">0</Timestamp><DateUtc dt:dt=""string"">2019-02-26T21:17:00Z</DateUtc></StartTime><FrequencyChanges><FrequencyChange><Frequency dt:dt=""r8"">3020400</Frequency><Timestamp dt:dt=""r8"">1808513083333</Timestamp><Current dt:dt=""r8"">0</Current><DateUtc dt:dt=""string"">2019-02-26T21:17:00Z</DateUtc></FrequencyChange></FrequencyChanges></Clock>\n"	000_R01_VB_allProc-43-1	60.022	1.0.0.185	1	332465284	Professional	2.0.10.356	2.0.10.356	02-26-2019	2/26/2019 9:17:00 PM	16:17:00	2.0.10.252	3	0	0	567867	7	567867	3998	-999999	757289	-3	727808	0	Run4Proc	3	1	3	RunList	6	HighLargeED	8000	0	719811	0	719811	0	719811	0	A4HighLargeEDBlockProc	n/a	n/a	n/a	n/a	n/a	n/a	n/a	n/a	n/a	6.0	1.0	6.0	n/a	n/a	n/a	Run4BlockList	4	n/a	n/a	n/a	n/a	n/a	n/a	n/a	n/a	n/a	4.0	1.0	4.0	n/a	n/a	n/a	n/a	n/a	n/a	n/a	n/a	n/a	n/a	n/a	n/a	n/a	n/a	n/a	n/a	n/a	n/a	n/a	n/a	n/a	n/a	n/a	n/a	n/a	n/a	n/a	n/a	n/a	n/a	n/a	n/a	n/a	n/a	n/a	n/a	n/a	n/a	n/a	n/a	n/a	n/a	n/a	n/a	n/a	n/a	n/a	n/a	n/a	n/a	n/a	n/a	n/a	n/a	n/a	n/a	n/a	n/a	n/a	n/a	n/a	n/a	n/a	n/a	n/a	n/a	n/a	n/a	n/a	n/a	n/a	n/a	n/a	n/a	n/a	n/a	n/a	n/a	A4_04.jpg	500	0	713313	-1	713313	0	TrialProc1	A4HighLargeEDBlockList	2500	0	710814	0	710814	0	710814	2499	d	725	711539	142.949
146	2.5	000_R01_VB_allProc	43	1	"<?xml version=""1.0""?>\n<Clock xmlns:dt=""urn:schemas-microsoft-com:datatypes""><Description dt:dt=""string"">E-Prime Primary Realtime Clock</Description><StartTime><Timestamp dt:dt=""int"">0</Timestamp><DateUtc dt:dt=""string"">2019-02-26T21:17:00Z</DateUtc></StartTime><FrequencyChanges><FrequencyChange><Frequency dt:dt=""r8"">3020400</Frequency><Timestamp dt:dt=""r8"">1808513083333</Timestamp><Current dt:dt=""r8"">0</Current><DateUtc dt:dt=""string"">2019-02-26T21:17:00Z</DateUtc></FrequencyChange></FrequencyChanges></Clock>\n"	000_R01_VB_allProc-43-1	60.022	1.0.0.185	1	332465284	Professional	2.0.10.356	2.0.10.356	02-26-2019	2/26/2019 9:17:00 PM	16:17:00	2.0.10.252	3	0	0	567867	7	567867	3998	-999999	757289	-3	727808	0	Run4Proc	3	1	3	RunList	6	HighLargeED	8000	0	719811	0	719811	0	719811	0	A4HighLargeEDBlockProc	n/a	n/a	n/a	n/a	n/a	n/a	n/a	n/a	n/a	6.0	1.0	6.0	n/a	n/a	n/a	Run4BlockList	5	n/a	n/a	n/a	n/a	n/a	n/a	n/a	n/a	n/a	5.0	1.0	5.0	n/a	n/a	n/a	n/a	n/a	n/a	n/a	n/a	n/a	n/a	n/a	n/a	n/a	n/a	n/a	n/a	n/a	n/a	n/a	n/a	n/a	n/a	n/a	n/a	n/a	n/a	n/a	n/a	n/a	n/a	n/a	n/a	n/a	n/a	n/a	n/a	n/a	n/a	n/a	n/a	n/a	n/a	n/a	n/a	n/a	n/a	n/a	n/a	n/a	n/a	n/a	n/a	n/a	n/a	n/a	n/a	n/a	n/a	n/a	n/a	n/a	n/a	n/a	n/a	n/a	n/a	n/a	n/a	n/a	n/a	n/a	n/a	n/a	n/a	n/a	n/a	n/a	n/a	A4_05.jpg	500	0	716312	-1	716312	0	TrialProc1	A4HighLargeEDBlockList	2500	0	713813	0	713813	0	713813	2499	d	798	714611	145.948
149	2.5	000_R01_VB_allProc	43	1	"<?xml version=""1.0""?>\n<Clock xmlns:dt=""urn:schemas-microsoft-com:datatypes""><Description dt:dt=""string"">E-Prime Primary Realtime Clock</Description><StartTime><Timestamp dt:dt=""int"">0</Timestamp><DateUtc dt:dt=""string"">2019-02-26T21:17:00Z</DateUtc></StartTime><FrequencyChanges><FrequencyChange><Frequency dt:dt=""r8"">3020400</Frequency><Timestamp dt:dt=""r8"">1808513083333</Timestamp><Current dt:dt=""r8"">0</Current><DateUtc dt:dt=""string"">2019-02-26T21:17:00Z</DateUtc></FrequencyChange></FrequencyChanges></Clock>\n"	000_R01_VB_allProc-43-1	60.022	1.0.0.185	1	332465284	Professional	2.0.10.356	2.0.10.356	02-26-2019	2/26/2019 9:17:00 PM	16:17:00	2.0.10.252	3	0	0	567867	7	567867	3998	-999999	757289	-3	727808	0	Run4Proc	3	1	3	RunList	6	HighLargeED	8000	0	719811	0	719811	0	719811	0	A4HighLargeEDBlockProc	n/a	n/a	n/a	n/a	n/a	n/a	n/a	n/a	n/a	6.0	1.0	6.0	n/a	n/a	n/a	Run4BlockList	6	n/a	n/a	n/a	n/a	n/a	n/a	n/a	n/a	n/a	6.0	1.0	6.0	n/a	n/a	n/a	n/a	n/a	n/a	n/a	n/a	n/a	n/a	n/a	n/a	n/a	n/a	n/a	n/a	n/a	n/a	n/a	n/a	n/a	n/a	n/a	n/a	n/a	n/a	n/a	n/a	n/a	n/a	n/a	n/a	n/a	n/a	n/a	n/a	n/a	n/a	n/a	n/a	n/a	n/a	n/a	n/a	n/a	n/a	n/a	n/a	n/a	n/a	n/a	n/a	n/a	n/a	n/a	n/a	n/a	n/a	n/a	n/a	n/a	n/a	n/a	n/a	n/a	n/a	n/a	n/a	n/a	n/a	n/a	n/a	n/a	n/a	n/a	n/a	n/a	n/a	A4_06.jpg	500	0	719311	-1	719311	0	TrialProc1	A4HighLargeEDBlockList	2500	0	716812	0	716812	0	716812	2499	d	1151	717963	148.947
