onset	duration	experiment_name	sub	ses	clock_information	datafile_basename	display_refreshrate	experiment_version	group	randomseed	runtime_capabilities	runtime_version	runtimeversionexpected	session_date	session_start_date_time_utc	session_time	studio_version	block	fixation2trs_durationerror	fixation2trs_offsetdelay	fixation2trs_offsettime	fixation2trs_onsetdelay	fixation2trs_onsettime	fixation2trs_onsettoonsettime	goodwork_durationerror	goodwork_finishtime	goodwork_onsetdelay	goodwork_onsettime	goodwork_onsettoonsettime	procedure_block	runlist	runlist_cycle	runlist_sample	running_block	trial	condition	interblockinterval_duration	interblockinterval_durationerror	interblockinterval_finishtime	interblockinterval_offsetdelay	interblockinterval_offsettime	interblockinterval_onsetdelay	interblockinterval_onsettime	interblockinterval_onsettoonsettime	procedure_trial	run1blocklist	run1blocklist_cycle	run1blocklist_sample	run2blocklist	run2blocklist_cycle	run2blocklist_sample	run3blocklist	run3blocklist_cycle	run3blocklist_sample	run4blocklist	run4blocklist_cycle	run4blocklist_sample	run5blocklist	run5blocklist_cycle	run5blocklist_sample	running_trial	subtrial	a1highlargeedblocklist	a1highlargeedblocklist_cycle	a1highlargeedblocklist_sample	a2highlargeedblocklist	a2highlargeedblocklist_cycle	a2highlargeedblocklist_sample	a3highlargeedblocklist	a3highlargeedblocklist_cycle	a3highlargeedblocklist_sample	a4highlargeedblocklist	a4highlargeedblocklist_cycle	a4highlargeedblocklist_sample	a5highlargeedblocklist	a5highlargeedblocklist_cycle	a5highlargeedblocklist_sample	b1highsmalledblocklist	b1highsmalledblocklist_cycle	b1highsmalledblocklist_sample	b2highsmalledblocklist	b2highsmalledblocklist_cycle	b2highsmalledblocklist_sample	b3highsmalledblocklist	b3highsmalledblocklist_cycle	b3highsmalledblocklist_sample	b4highsmalledblocklist	b4highsmalledblocklist_cycle	b4highsmalledblocklist_sample	b5highsmalledblocklist	b5highsmalledblocklist_cycle	b5highsmalledblocklist_sample	c1lowlargeedblocklist	c1lowlargeedblocklist_cycle	c1lowlargeedblocklist_sample	c2lowlargeedblocklist	c2lowlargeedblocklist_cycle	c2lowlargeedblocklist_sample	c3lowlargeedblocklist	c3lowlargeedblocklist_cycle	c3lowlargeedblocklist_sample	c4lowlargeedblocklist	c4lowlargeedblocklist_cycle	c4lowlargeedblocklist_sample	c5lowlargeedblocklist	c5lowlargeedblocklist_cycle	c5lowlargeedblocklist_sample	d1lowsmalledblocklist	d1lowsmalledblocklist_cycle	d1lowsmalledblocklist_sample	d2highlargeedblocklist	d2highlargeedblocklist_cycle	d2highlargeedblocklist_sample	d3lowsmalledblocklist	d3lowsmalledblocklist_cycle	d3lowsmalledblocklist_sample	d4lowsmalledblocklist	d4lowsmalledblocklist_cycle	d4lowsmalledblocklist_sample	d5lowsmalledblocklist	d5lowsmalledblocklist_cycle	d5lowsmalledblocklist_sample	e1officelargeblocklist	e1officelargeblocklist_cycle	e1officelargeblocklist_sample	e2officelargeblocklist	e2officelargeblocklist_cycle	e2officelargeblocklist_sample	e3officelargeblocklist	e3officelargeblocklist_cycle	e3officelargeblocklist_sample	e4officelargeblocklist	e4officelargeblocklist_cycle	e4officelargeblocklist_sample	e5officelargeblocklist	e5officelargeblocklist_cycle	e5officelargeblocklist_sample	f1officesmallblocklist	f1officesmallblocklist_cycle	f1officesmallblocklist_sample	f2officesmallblocklist	f2officesmallblocklist_cycle	f2officesmallblocklist_sample	f3officesmallblocklist	f3officesmallblocklist_cycle	f3officesmallblocklist_sample	f4officesmallblocklist	f4officesmallblocklist_cycle	f4officesmallblocklist_sample	f5officesmallblocklist	f5officesmallblocklist_cycle	f5officesmallblocklist_sample	filename	isi_duration	isi_durationerror	isi_finishtime	isi_onsetdelay	isi_onsettime	isi_onsettoonsettime	procedure_subtrial	running_subtrial	stimslide_duration	stimslide_durationerror	stimslide_finishtime	stimslide_offsetdelay	stimslide_offsettime	stimslide_onsetdelay	stimslide_onsettime	stimslide_onsettoonsettime	stimslide_resp	stimslide_rt	stimslide_rttime	onset_unrounded
4	2.5	000_R01_VB_allProc	43	1	"<?xml version=""1.0""?>\n<Clock xmlns:dt=""urn:schemas-microsoft-com:datatypes""><Description dt:dt=""string"">E-Prime Primary Realtime Clock</Description><StartTime><Timestamp dt:dt=""int"">0</Timestamp><DateUtc dt:dt=""string"">2019-02-26T21:17:00Z</DateUtc></StartTime><FrequencyChanges><FrequencyChange><Frequency dt:dt=""r8"">3020400</Frequency><Timestamp dt:dt=""r8"">1808513083333</Timestamp><Current dt:dt=""r8"">0</Current><DateUtc dt:dt=""string"">2019-02-26T21:17:00Z</DateUtc></FrequencyChange></FrequencyChanges></Clock>\n"	000_R01_VB_allProc-43-1	60.022	1.0.0.185	1	332465284	Professional	2.0.10.356	2.0.10.356	02-26-2019	2/26/2019 9:17:00 PM	16:17:00	2.0.10.252	2	0	0	324290	18	324290	3998	-999999	562292	-3	484231	0	Run5Proc	2	1	2	RunList	1	LowLargeED	8000	0	346282	0	346282	0	346282	0	C5LowLargeEDBlockProc	n/a	n/a	n/a	n/a	n/a	n/a	n/a	n/a	n/a	n/a	n/a	n/a	1.0	1.0	1.0	Run5BlockList	1	n/a	n/a	n/a	n/a	n/a	n/a	n/a	n/a	n/a	n/a	n/a	n/a	n/a	n/a	n/a	n/a	n/a	n/a	n/a	n/a	n/a	n/a	n/a	n/a	n/a	n/a	n/a	n/a	n/a	n/a	n/a	n/a	n/a	n/a	n/a	n/a	n/a	n/a	n/a	n/a	n/a	n/a	1.0	1.0	1.0	n/a	n/a	n/a	n/a	n/a	n/a	n/a	n/a	n/a	n/a	n/a	n/a	n/a	n/a	n/a	n/a	n/a	n/a	n/a	n/a	n/a	n/a	n/a	n/a	n/a	n/a	n/a	n/a	n/a	n/a	n/a	n/a	n/a	n/a	n/a	n/a	n/a	n/a	n/a	n/a	n/a	n/a	n/a	n/a	n/a	C5_01.jpg	500	0	330787	-1	330787	0	TrialProc1	C5LowLargeEDBlockList	2500	0	328288	0	328288	-2	328288	2499	c	1297	329585	4.0
7	2.5	000_R01_VB_allProc	43	1	"<?xml version=""1.0""?>\n<Clock xmlns:dt=""urn:schemas-microsoft-com:datatypes""><Description dt:dt=""string"">E-Prime Primary Realtime Clock</Description><StartTime><Timestamp dt:dt=""int"">0</Timestamp><DateUtc dt:dt=""string"">2019-02-26T21:17:00Z</DateUtc></StartTime><FrequencyChanges><FrequencyChange><Frequency dt:dt=""r8"">3020400</Frequency><Timestamp dt:dt=""r8"">1808513083333</Timestamp><Current dt:dt=""r8"">0</Current><DateUtc dt:dt=""string"">2019-02-26T21:17:00Z</DateUtc></FrequencyChange></FrequencyChanges></Clock>\n"	000_R01_VB_allProc-43-1	60.022	1.0.0.185	1	332465284	Professional	2.0.10.356	2.0.10.356	02-26-2019	2/26/2019 9:17:00 PM	16:17:00	2.0.10.252	2	0	0	324290	18	324290	3998	-999999	562292	-3	484231	0	Run5Proc	2	1	2	RunList	1	LowLargeED	8000	0	346282	0	346282	0	346282	0	C5LowLargeEDBlockProc	n/a	n/a	n/a	n/a	n/a	n/a	n/a	n/a	n/a	n/a	n/a	n/a	1.0	1.0	1.0	Run5BlockList	2	n/a	n/a	n/a	n/a	n/a	n/a	n/a	n/a	n/a	n/a	n/a	n/a	n/a	n/a	n/a	n/a	n/a	n/a	n/a	n/a	n/a	n/a	n/a	n/a	n/a	n/a	n/a	n/a	n/a	n/a	n/a	n/a	n/a	n/a	n/a	n/a	n/a	n/a	n/a	n/a	n/a	n/a	2.0	1.0	2.0	n/a	n/a	n/a	n/a	n/a	n/a	n/a	n/a	n/a	n/a	n/a	n/a	n/a	n/a	n/a	n/a	n/a	n/a	n/a	n/a	n/a	n/a	n/a	n/a	n/a	n/a	n/a	n/a	n/a	n/a	n/a	n/a	n/a	n/a	n/a	n/a	n/a	n/a	n/a	n/a	n/a	n/a	n/a	n/a	n/a	C5_02.jpg	500	0	333786	-1	333786	0	TrialProc1	C5LowLargeEDBlockList	2500	0	331287	0	331287	0	331287	2499	d	842	332129	6.9990000000000006
10	2.5	000_R01_VB_allProc	43	1	"<?xml version=""1.0""?>\n<Clock xmlns:dt=""urn:schemas-microsoft-com:datatypes""><Description dt:dt=""string"">E-Prime Primary Realtime Clock</Description><StartTime><Timestamp dt:dt=""int"">0</Timestamp><DateUtc dt:dt=""string"">2019-02-26T21:17:00Z</DateUtc></StartTime><FrequencyChanges><FrequencyChange><Frequency dt:dt=""r8"">3020400</Frequency><Timestamp dt:dt=""r8"">1808513083333</Timestamp><Current dt:dt=""r8"">0</Current><DateUtc dt:dt=""string"">2019-02-26T21:17:00Z</DateUtc></FrequencyChange></FrequencyChanges></Clock>\n"	000_R01_VB_allProc-43-1	60.022	1.0.0.185	1	332465284	Professional	2.0.10.356	2.0.10.356	02-26-2019	2/26/2019 9:17:00 PM	16:17:00	2.0.10.252	2	0	0	324290	18	324290	3998	-999999	562292	-3	484231	0	Run5Proc	2	1	2	RunList	1	LowLargeED	8000	0	346282	0	346282	0	346282	0	C5LowLargeEDBlockProc	n/a	n/a	n/a	n/a	n/a	n/a	n/a	n/a	n/a	n/a	n/a	n/a	1.0	1.0	1.0	Run5BlockList	3	n/a	n/a	n/a	n/a	n/a	n/a	n/a	n/a	n/a	n/a	n/a	n/a	n/a	n/a	n/a	n/a	n/a	n/a	n/a	n/a	n/a	n/a	n/a	n/a	n/a	n/a	n/a	n/a	n/a	n/a	n/a	n/a	n/a	n/a	n/a	n/a	n/a	n/a	n/a	n/a	n/a	n/a	3.0	1.0	3.0	n/a	n/a	n/a	n/a	n/a	n/a	n/a	n/a	n/a	n/a	n/a	n/a	n/a	n/a	n/a	n/a	n/a	n/a	n/a	n/a	n/a	n/a	n/a	n/a	n/a	n/a	n/a	n/a	n/a	n/a	n/a	n/a	n/a	n/a	n/a	n/a	n/a	n/a	n/a	n/a	n/a	n/a	n/a	n/a	n/a	C5_03.jpg	500	0	336785	-1	336785	0	TrialProc1	C5LowLargeEDBlockList	2500	0	334286	0	334286	0	334286	2499	c	787	335073	9.998000000000001
13	2.5	000_R01_VB_allProc	43	1	"<?xml version=""1.0""?>\n<Clock xmlns:dt=""urn:schemas-microsoft-com:datatypes""><Description dt:dt=""string"">E-Prime Primary Realtime Clock</Description><StartTime><Timestamp dt:dt=""int"">0</Timestamp><DateUtc dt:dt=""string"">2019-02-26T21:17:00Z</DateUtc></StartTime><FrequencyChanges><FrequencyChange><Frequency dt:dt=""r8"">3020400</Frequency><Timestamp dt:dt=""r8"">1808513083333</Timestamp><Current dt:dt=""r8"">0</Current><DateUtc dt:dt=""string"">2019-02-26T21:17:00Z</DateUtc></FrequencyChange></FrequencyChanges></Clock>\n"	000_R01_VB_allProc-43-1	60.022	1.0.0.185	1	332465284	Professional	2.0.10.356	2.0.10.356	02-26-2019	2/26/2019 9:17:00 PM	16:17:00	2.0.10.252	2	0	0	324290	18	324290	3998	-999999	562292	-3	484231	0	Run5Proc	2	1	2	RunList	1	LowLargeED	8000	0	346282	0	346282	0	346282	0	C5LowLargeEDBlockProc	n/a	n/a	n/a	n/a	n/a	n/a	n/a	n/a	n/a	n/a	n/a	n/a	1.0	1.0	1.0	Run5BlockList	4	n/a	n/a	n/a	n/a	n/a	n/a	n/a	n/a	n/a	n/a	n/a	n/a	n/a	n/a	n/a	n/a	n/a	n/a	n/a	n/a	n/a	n/a	n/a	n/a	n/a	n/a	n/a	n/a	n/a	n/a	n/a	n/a	n/a	n/a	n/a	n/a	n/a	n/a	n/a	n/a	n/a	n/a	4.0	1.0	4.0	n/a	n/a	n/a	n/a	n/a	n/a	n/a	n/a	n/a	n/a	n/a	n/a	n/a	n/a	n/a	n/a	n/a	n/a	n/a	n/a	n/a	n/a	n/a	n/a	n/a	n/a	n/a	n/a	n/a	n/a	n/a	n/a	n/a	n/a	n/a	n/a	n/a	n/a	n/a	n/a	n/a	n/a	n/a	n/a	n/a	C5_04.jpg	500	0	339784	-1	339784	0	TrialProc1	C5LowLargeEDBlockList	2500	0	337285	0	337285	0	337285	2499	d	868	338153	12.997
16	2.5	000_R01_VB_allProc	43	1	"<?xml version=""1.0""?>\n<Clock xmlns:dt=""urn:schemas-microsoft-com:datatypes""><Description dt:dt=""string"">E-Prime Primary Realtime Clock</Description><StartTime><Timestamp dt:dt=""int"">0</Timestamp><DateUtc dt:dt=""string"">2019-02-26T21:17:00Z</DateUtc></StartTime><FrequencyChanges><FrequencyChange><Frequency dt:dt=""r8"">3020400</Frequency><Timestamp dt:dt=""r8"">1808513083333</Timestamp><Current dt:dt=""r8"">0</Current><DateUtc dt:dt=""string"">2019-02-26T21:17:00Z</DateUtc></FrequencyChange></FrequencyChanges></Clock>\n"	000_R01_VB_allProc-43-1	60.022	1.0.0.185	1	332465284	Professional	2.0.10.356	2.0.10.356	02-26-2019	2/26/2019 9:17:00 PM	16:17:00	2.0.10.252	2	0	0	324290	18	324290	3998	-999999	562292	-3	484231	0	Run5Proc	2	1	2	RunList	1	LowLargeED	8000	0	346282	0	346282	0	346282	0	C5LowLargeEDBlockProc	n/a	n/a	n/a	n/a	n/a	n/a	n/a	n/a	n/a	n/a	n/a	n/a	1.0	1.0	1.0	Run5BlockList	5	n/a	n/a	n/a	n/a	n/a	n/a	n/a	n/a	n/a	n/a	n/a	n/a	n/a	n/a	n/a	n/a	n/a	n/a	n/a	n/a	n/a	n/a	n/a	n/a	n/a	n/a	n/a	n/a	n/a	n/a	n/a	n/a	n/a	n/a	n/a	n/a	n/a	n/a	n/a	n/a	n/a	n/a	5.0	1.0	5.0	n/a	n/a	n/a	n/a	n/a	n/a	n/a	n/a	n/a	n/a	n/a	n/a	n/a	n/a	n/a	n/a	n/a	n/a	n/a	n/a	n/a	n/a	n/a	n/a	n/a	n/a	n/a	n/a	n/a	n/a	n/a	n/a	n/a	n/a	n/a	n/a	n/a	n/a	n/a	n/a	n/a	n/a	n/a	n/a	n/a	C5_05.jpg	500	0	342783	-1	342783	0	TrialProc1	C5LowLargeEDBlockList	2500	0	340284	0	340284	0	340284	2499	c	1140	341424	15.996
19	2.5	000_R01_VB_allProc	43	1	"<?xml version=""1.0""?>\n<Clock xmlns:dt=""urn:schemas-microsoft-com:datatypes""><Description dt:dt=""string"">E-Prime Primary Realtime Clock</Description><StartTime><Timestamp dt:dt=""int"">0</Timestamp><DateUtc dt:dt=""string"">2019-02-26T21:17:00Z</DateUtc></StartTime><FrequencyChanges><FrequencyChange><Frequency dt:dt=""r8"">3020400</Frequency><Timestamp dt:dt=""r8"">1808513083333</Timestamp><Current dt:dt=""r8"">0</Current><DateUtc dt:dt=""string"">2019-02-26T21:17:00Z</DateUtc></FrequencyChange></FrequencyChanges></Clock>\n"	000_R01_VB_allProc-43-1	60.022	1.0.0.185	1	332465284	Professional	2.0.10.356	2.0.10.356	02-26-2019	2/26/2019 9:17:00 PM	16:17:00	2.0.10.252	2	0	0	324290	18	324290	3998	-999999	562292	-3	484231	0	Run5Proc	2	1	2	RunList	1	LowLargeED	8000	0	346282	0	346282	0	346282	0	C5LowLargeEDBlockProc	n/a	n/a	n/a	n/a	n/a	n/a	n/a	n/a	n/a	n/a	n/a	n/a	1.0	1.0	1.0	Run5BlockList	6	n/a	n/a	n/a	n/a	n/a	n/a	n/a	n/a	n/a	n/a	n/a	n/a	n/a	n/a	n/a	n/a	n/a	n/a	n/a	n/a	n/a	n/a	n/a	n/a	n/a	n/a	n/a	n/a	n/a	n/a	n/a	n/a	n/a	n/a	n/a	n/a	n/a	n/a	n/a	n/a	n/a	n/a	6.0	1.0	6.0	n/a	n/a	n/a	n/a	n/a	n/a	n/a	n/a	n/a	n/a	n/a	n/a	n/a	n/a	n/a	n/a	n/a	n/a	n/a	n/a	n/a	n/a	n/a	n/a	n/a	n/a	n/a	n/a	n/a	n/a	n/a	n/a	n/a	n/a	n/a	n/a	n/a	n/a	n/a	n/a	n/a	n/a	n/a	n/a	n/a	C5_06.jpg	500	0	345782	-1	345782	0	TrialProc1	C5LowLargeEDBlockList	2500	0	343283	0	343283	0	343283	2499	c	1925	345208	18.994999999999997
30	2.5	000_R01_VB_allProc	43	1	"<?xml version=""1.0""?>\n<Clock xmlns:dt=""urn:schemas-microsoft-com:datatypes""><Description dt:dt=""string"">E-Prime Primary Realtime Clock</Description><StartTime><Timestamp dt:dt=""int"">0</Timestamp><DateUtc dt:dt=""string"">2019-02-26T21:17:00Z</DateUtc></StartTime><FrequencyChanges><FrequencyChange><Frequency dt:dt=""r8"">3020400</Frequency><Timestamp dt:dt=""r8"">1808513083333</Timestamp><Current dt:dt=""r8"">0</Current><DateUtc dt:dt=""string"">2019-02-26T21:17:00Z</DateUtc></FrequencyChange></FrequencyChanges></Clock>\n"	000_R01_VB_allProc-43-1	60.022	1.0.0.185	1	332465284	Professional	2.0.10.356	2.0.10.356	02-26-2019	2/26/2019 9:17:00 PM	16:17:00	2.0.10.252	2	0	0	324290	18	324290	3998	-999999	562292	-3	484231	0	Run5Proc	2	1	2	RunList	2	OfficeSmall	8000	0	372272	0	372272	0	372272	0	F5OfficeSmallBlockProc	n/a	n/a	n/a	n/a	n/a	n/a	n/a	n/a	n/a	n/a	n/a	n/a	2.0	1.0	2.0	Run5BlockList	1	n/a	n/a	n/a	n/a	n/a	n/a	n/a	n/a	n/a	n/a	n/a	n/a	n/a	n/a	n/a	n/a	n/a	n/a	n/a	n/a	n/a	n/a	n/a	n/a	n/a	n/a	n/a	n/a	n/a	n/a	n/a	n/a	n/a	n/a	n/a	n/a	n/a	n/a	n/a	n/a	n/a	n/a	n/a	n/a	n/a	n/a	n/a	n/a	n/a	n/a	n/a	n/a	n/a	n/a	n/a	n/a	n/a	n/a	n/a	n/a	n/a	n/a	n/a	n/a	n/a	n/a	n/a	n/a	n/a	n/a	n/a	n/a	n/a	n/a	n/a	n/a	n/a	n/a	n/a	n/a	n/a	n/a	n/a	n/a	n/a	n/a	n/a	1.0	1.0	1.0	F5_01.jpg	500	0	356778	-1	356778	0	TrialProc1	F5OfficeSmallBlockList	2500	0	354279	0	354279	-3	354279	2499	d	1545	355824	29.991
33	2.5	000_R01_VB_allProc	43	1	"<?xml version=""1.0""?>\n<Clock xmlns:dt=""urn:schemas-microsoft-com:datatypes""><Description dt:dt=""string"">E-Prime Primary Realtime Clock</Description><StartTime><Timestamp dt:dt=""int"">0</Timestamp><DateUtc dt:dt=""string"">2019-02-26T21:17:00Z</DateUtc></StartTime><FrequencyChanges><FrequencyChange><Frequency dt:dt=""r8"">3020400</Frequency><Timestamp dt:dt=""r8"">1808513083333</Timestamp><Current dt:dt=""r8"">0</Current><DateUtc dt:dt=""string"">2019-02-26T21:17:00Z</DateUtc></FrequencyChange></FrequencyChanges></Clock>\n"	000_R01_VB_allProc-43-1	60.022	1.0.0.185	1	332465284	Professional	2.0.10.356	2.0.10.356	02-26-2019	2/26/2019 9:17:00 PM	16:17:00	2.0.10.252	2	0	0	324290	18	324290	3998	-999999	562292	-3	484231	0	Run5Proc	2	1	2	RunList	2	OfficeSmall	8000	0	372272	0	372272	0	372272	0	F5OfficeSmallBlockProc	n/a	n/a	n/a	n/a	n/a	n/a	n/a	n/a	n/a	n/a	n/a	n/a	2.0	1.0	2.0	Run5BlockList	2	n/a	n/a	n/a	n/a	n/a	n/a	n/a	n/a	n/a	n/a	n/a	n/a	n/a	n/a	n/a	n/a	n/a	n/a	n/a	n/a	n/a	n/a	n/a	n/a	n/a	n/a	n/a	n/a	n/a	n/a	n/a	n/a	n/a	n/a	n/a	n/a	n/a	n/a	n/a	n/a	n/a	n/a	n/a	n/a	n/a	n/a	n/a	n/a	n/a	n/a	n/a	n/a	n/a	n/a	n/a	n/a	n/a	n/a	n/a	n/a	n/a	n/a	n/a	n/a	n/a	n/a	n/a	n/a	n/a	n/a	n/a	n/a	n/a	n/a	n/a	n/a	n/a	n/a	n/a	n/a	n/a	n/a	n/a	n/a	n/a	n/a	n/a	2.0	1.0	2.0	F5_02.jpg	500	0	359777	-1	359777	0	TrialProc1	F5OfficeSmallBlockList	2500	0	357278	0	357278	0	357278	2499	d	906	358184	32.989999999999995
36	2.5	000_R01_VB_allProc	43	1	"<?xml version=""1.0""?>\n<Clock xmlns:dt=""urn:schemas-microsoft-com:datatypes""><Description dt:dt=""string"">E-Prime Primary Realtime Clock</Description><StartTime><Timestamp dt:dt=""int"">0</Timestamp><DateUtc dt:dt=""string"">2019-02-26T21:17:00Z</DateUtc></StartTime><FrequencyChanges><FrequencyChange><Frequency dt:dt=""r8"">3020400</Frequency><Timestamp dt:dt=""r8"">1808513083333</Timestamp><Current dt:dt=""r8"">0</Current><DateUtc dt:dt=""string"">2019-02-26T21:17:00Z</DateUtc></FrequencyChange></FrequencyChanges></Clock>\n"	000_R01_VB_allProc-43-1	60.022	1.0.0.185	1	332465284	Professional	2.0.10.356	2.0.10.356	02-26-2019	2/26/2019 9:17:00 PM	16:17:00	2.0.10.252	2	0	0	324290	18	324290	3998	-999999	562292	-3	484231	0	Run5Proc	2	1	2	RunList	2	OfficeSmall	8000	0	372272	0	372272	0	372272	0	F5OfficeSmallBlockProc	n/a	n/a	n/a	n/a	n/a	n/a	n/a	n/a	n/a	n/a	n/a	n/a	2.0	1.0	2.0	Run5BlockList	3	n/a	n/a	n/a	n/a	n/a	n/a	n/a	n/a	n/a	n/a	n/a	n/a	n/a	n/a	n/a	n/a	n/a	n/a	n/a	n/a	n/a	n/a	n/a	n/a	n/a	n/a	n/a	n/a	n/a	n/a	n/a	n/a	n/a	n/a	n/a	n/a	n/a	n/a	n/a	n/a	n/a	n/a	n/a	n/a	n/a	n/a	n/a	n/a	n/a	n/a	n/a	n/a	n/a	n/a	n/a	n/a	n/a	n/a	n/a	n/a	n/a	n/a	n/a	n/a	n/a	n/a	n/a	n/a	n/a	n/a	n/a	n/a	n/a	n/a	n/a	n/a	n/a	n/a	n/a	n/a	n/a	n/a	n/a	n/a	n/a	n/a	n/a	3.0	1.0	3.0	F5_03.jpg	500	0	362776	-1	362776	0	TrialProc1	F5OfficeSmallBlockList	2500	0	360277	0	360277	0	360277	2499	d	1107	361384	35.989000000000004
39	2.5	000_R01_VB_allProc	43	1	"<?xml version=""1.0""?>\n<Clock xmlns:dt=""urn:schemas-microsoft-com:datatypes""><Description dt:dt=""string"">E-Prime Primary Realtime Clock</Description><StartTime><Timestamp dt:dt=""int"">0</Timestamp><DateUtc dt:dt=""string"">2019-02-26T21:17:00Z</DateUtc></StartTime><FrequencyChanges><FrequencyChange><Frequency dt:dt=""r8"">3020400</Frequency><Timestamp dt:dt=""r8"">1808513083333</Timestamp><Current dt:dt=""r8"">0</Current><DateUtc dt:dt=""string"">2019-02-26T21:17:00Z</DateUtc></FrequencyChange></FrequencyChanges></Clock>\n"	000_R01_VB_allProc-43-1	60.022	1.0.0.185	1	332465284	Professional	2.0.10.356	2.0.10.356	02-26-2019	2/26/2019 9:17:00 PM	16:17:00	2.0.10.252	2	0	0	324290	18	324290	3998	-999999	562292	-3	484231	0	Run5Proc	2	1	2	RunList	2	OfficeSmall	8000	0	372272	0	372272	0	372272	0	F5OfficeSmallBlockProc	n/a	n/a	n/a	n/a	n/a	n/a	n/a	n/a	n/a	n/a	n/a	n/a	2.0	1.0	2.0	Run5BlockList	4	n/a	n/a	n/a	n/a	n/a	n/a	n/a	n/a	n/a	n/a	n/a	n/a	n/a	n/a	n/a	n/a	n/a	n/a	n/a	n/a	n/a	n/a	n/a	n/a	n/a	n/a	n/a	n/a	n/a	n/a	n/a	n/a	n/a	n/a	n/a	n/a	n/a	n/a	n/a	n/a	n/a	n/a	n/a	n/a	n/a	n/a	n/a	n/a	n/a	n/a	n/a	n/a	n/a	n/a	n/a	n/a	n/a	n/a	n/a	n/a	n/a	n/a	n/a	n/a	n/a	n/a	n/a	n/a	n/a	n/a	n/a	n/a	n/a	n/a	n/a	n/a	n/a	n/a	n/a	n/a	n/a	n/a	n/a	n/a	n/a	n/a	n/a	4.0	1.0	4.0	F5_04.jpg	500	0	365775	0	365775	0	TrialProc1	F5OfficeSmallBlockList	2500	0	363275	0	363275	-1	363275	2500	d	933	364208	38.987
42	2.5	000_R01_VB_allProc	43	1	"<?xml version=""1.0""?>\n<Clock xmlns:dt=""urn:schemas-microsoft-com:datatypes""><Description dt:dt=""string"">E-Prime Primary Realtime Clock</Description><StartTime><Timestamp dt:dt=""int"">0</Timestamp><DateUtc dt:dt=""string"">2019-02-26T21:17:00Z</DateUtc></StartTime><FrequencyChanges><FrequencyChange><Frequency dt:dt=""r8"">3020400</Frequency><Timestamp dt:dt=""r8"">1808513083333</Timestamp><Current dt:dt=""r8"">0</Current><DateUtc dt:dt=""string"">2019-02-26T21:17:00Z</DateUtc></FrequencyChange></FrequencyChanges></Clock>\n"	000_R01_VB_allProc-43-1	60.022	1.0.0.185	1	332465284	Professional	2.0.10.356	2.0.10.356	02-26-2019	2/26/2019 9:17:00 PM	16:17:00	2.0.10.252	2	0	0	324290	18	324290	3998	-999999	562292	-3	484231	0	Run5Proc	2	1	2	RunList	2	OfficeSmall	8000	0	372272	0	372272	0	372272	0	F5OfficeSmallBlockProc	n/a	n/a	n/a	n/a	n/a	n/a	n/a	n/a	n/a	n/a	n/a	n/a	2.0	1.0	2.0	Run5BlockList	5	n/a	n/a	n/a	n/a	n/a	n/a	n/a	n/a	n/a	n/a	n/a	n/a	n/a	n/a	n/a	n/a	n/a	n/a	n/a	n/a	n/a	n/a	n/a	n/a	n/a	n/a	n/a	n/a	n/a	n/a	n/a	n/a	n/a	n/a	n/a	n/a	n/a	n/a	n/a	n/a	n/a	n/a	n/a	n/a	n/a	n/a	n/a	n/a	n/a	n/a	n/a	n/a	n/a	n/a	n/a	n/a	n/a	n/a	n/a	n/a	n/a	n/a	n/a	n/a	n/a	n/a	n/a	n/a	n/a	n/a	n/a	n/a	n/a	n/a	n/a	n/a	n/a	n/a	n/a	n/a	n/a	n/a	n/a	n/a	n/a	n/a	n/a	5.0	1.0	5.0	F5_05.jpg	500	0	368773	-1	368773	0	TrialProc1	F5OfficeSmallBlockList	2500	0	366274	0	366274	-1	366274	2499	d	1294	367568	41.986
45	2.5	000_R01_VB_allProc	43	1	"<?xml version=""1.0""?>\n<Clock xmlns:dt=""urn:schemas-microsoft-com:datatypes""><Description dt:dt=""string"">E-Prime Primary Realtime Clock</Description><StartTime><Timestamp dt:dt=""int"">0</Timestamp><DateUtc dt:dt=""string"">2019-02-26T21:17:00Z</DateUtc></StartTime><FrequencyChanges><FrequencyChange><Frequency dt:dt=""r8"">3020400</Frequency><Timestamp dt:dt=""r8"">1808513083333</Timestamp><Current dt:dt=""r8"">0</Current><DateUtc dt:dt=""string"">2019-02-26T21:17:00Z</DateUtc></FrequencyChange></FrequencyChanges></Clock>\n"	000_R01_VB_allProc-43-1	60.022	1.0.0.185	1	332465284	Professional	2.0.10.356	2.0.10.356	02-26-2019	2/26/2019 9:17:00 PM	16:17:00	2.0.10.252	2	0	0	324290	18	324290	3998	-999999	562292	-3	484231	0	Run5Proc	2	1	2	RunList	2	OfficeSmall	8000	0	372272	0	372272	0	372272	0	F5OfficeSmallBlockProc	n/a	n/a	n/a	n/a	n/a	n/a	n/a	n/a	n/a	n/a	n/a	n/a	2.0	1.0	2.0	Run5BlockList	6	n/a	n/a	n/a	n/a	n/a	n/a	n/a	n/a	n/a	n/a	n/a	n/a	n/a	n/a	n/a	n/a	n/a	n/a	n/a	n/a	n/a	n/a	n/a	n/a	n/a	n/a	n/a	n/a	n/a	n/a	n/a	n/a	n/a	n/a	n/a	n/a	n/a	n/a	n/a	n/a	n/a	n/a	n/a	n/a	n/a	n/a	n/a	n/a	n/a	n/a	n/a	n/a	n/a	n/a	n/a	n/a	n/a	n/a	n/a	n/a	n/a	n/a	n/a	n/a	n/a	n/a	n/a	n/a	n/a	n/a	n/a	n/a	n/a	n/a	n/a	n/a	n/a	n/a	n/a	n/a	n/a	n/a	n/a	n/a	n/a	n/a	n/a	6.0	1.0	6.0	F5_06.jpg	500	0	371772	-1	371772	0	TrialProc1	F5OfficeSmallBlockList	2500	0	369273	0	369273	0	369273	2499	d	1399	370672	44.985
56	2.5	000_R01_VB_allProc	43	1	"<?xml version=""1.0""?>\n<Clock xmlns:dt=""urn:schemas-microsoft-com:datatypes""><Description dt:dt=""string"">E-Prime Primary Realtime Clock</Description><StartTime><Timestamp dt:dt=""int"">0</Timestamp><DateUtc dt:dt=""string"">2019-02-26T21:17:00Z</DateUtc></StartTime><FrequencyChanges><FrequencyChange><Frequency dt:dt=""r8"">3020400</Frequency><Timestamp dt:dt=""r8"">1808513083333</Timestamp><Current dt:dt=""r8"">0</Current><DateUtc dt:dt=""string"">2019-02-26T21:17:00Z</DateUtc></FrequencyChange></FrequencyChanges></Clock>\n"	000_R01_VB_allProc-43-1	60.022	1.0.0.185	1	332465284	Professional	2.0.10.356	2.0.10.356	02-26-2019	2/26/2019 9:17:00 PM	16:17:00	2.0.10.252	2	0	0	324290	18	324290	3998	-999999	562292	-3	484231	0	Run5Proc	2	1	2	RunList	3	HighSmallED	8000	0	398263	0	398263	0	398263	0	B5HighSmallEDBlockProc	n/a	n/a	n/a	n/a	n/a	n/a	n/a	n/a	n/a	n/a	n/a	n/a	3.0	1.0	3.0	Run5BlockList	1	n/a	n/a	n/a	n/a	n/a	n/a	n/a	n/a	n/a	n/a	n/a	n/a	n/a	n/a	n/a	n/a	n/a	n/a	n/a	n/a	n/a	n/a	n/a	n/a	n/a	n/a	n/a	1.0	1.0	1.0	n/a	n/a	n/a	n/a	n/a	n/a	n/a	n/a	n/a	n/a	n/a	n/a	n/a	n/a	n/a	n/a	n/a	n/a	n/a	n/a	n/a	n/a	n/a	n/a	n/a	n/a	n/a	n/a	n/a	n/a	n/a	n/a	n/a	n/a	n/a	n/a	n/a	n/a	n/a	n/a	n/a	n/a	n/a	n/a	n/a	n/a	n/a	n/a	n/a	n/a	n/a	n/a	n/a	n/a	n/a	n/a	n/a	n/a	n/a	n/a	B5_01.jpg	500	0	382768	-1	382768	0	TrialProc1	B5HighSmallEDBlockList	2500	0	380269	0	380269	-3	380269	2499	c	1315	381584	55.981
59	2.5	000_R01_VB_allProc	43	1	"<?xml version=""1.0""?>\n<Clock xmlns:dt=""urn:schemas-microsoft-com:datatypes""><Description dt:dt=""string"">E-Prime Primary Realtime Clock</Description><StartTime><Timestamp dt:dt=""int"">0</Timestamp><DateUtc dt:dt=""string"">2019-02-26T21:17:00Z</DateUtc></StartTime><FrequencyChanges><FrequencyChange><Frequency dt:dt=""r8"">3020400</Frequency><Timestamp dt:dt=""r8"">1808513083333</Timestamp><Current dt:dt=""r8"">0</Current><DateUtc dt:dt=""string"">2019-02-26T21:17:00Z</DateUtc></FrequencyChange></FrequencyChanges></Clock>\n"	000_R01_VB_allProc-43-1	60.022	1.0.0.185	1	332465284	Professional	2.0.10.356	2.0.10.356	02-26-2019	2/26/2019 9:17:00 PM	16:17:00	2.0.10.252	2	0	0	324290	18	324290	3998	-999999	562292	-3	484231	0	Run5Proc	2	1	2	RunList	3	HighSmallED	8000	0	398263	0	398263	0	398263	0	B5HighSmallEDBlockProc	n/a	n/a	n/a	n/a	n/a	n/a	n/a	n/a	n/a	n/a	n/a	n/a	3.0	1.0	3.0	Run5BlockList	2	n/a	n/a	n/a	n/a	n/a	n/a	n/a	n/a	n/a	n/a	n/a	n/a	n/a	n/a	n/a	n/a	n/a	n/a	n/a	n/a	n/a	n/a	n/a	n/a	n/a	n/a	n/a	2.0	1.0	2.0	n/a	n/a	n/a	n/a	n/a	n/a	n/a	n/a	n/a	n/a	n/a	n/a	n/a	n/a	n/a	n/a	n/a	n/a	n/a	n/a	n/a	n/a	n/a	n/a	n/a	n/a	n/a	n/a	n/a	n/a	n/a	n/a	n/a	n/a	n/a	n/a	n/a	n/a	n/a	n/a	n/a	n/a	n/a	n/a	n/a	n/a	n/a	n/a	n/a	n/a	n/a	n/a	n/a	n/a	n/a	n/a	n/a	n/a	n/a	n/a	B5_02.jpg	500	0	385767	-1	385767	0	TrialProc1	B5HighSmallEDBlockList	2500	0	383268	0	383268	0	383268	2499	d	1836	385104	58.98
62	2.5	000_R01_VB_allProc	43	1	"<?xml version=""1.0""?>\n<Clock xmlns:dt=""urn:schemas-microsoft-com:datatypes""><Description dt:dt=""string"">E-Prime Primary Realtime Clock</Description><StartTime><Timestamp dt:dt=""int"">0</Timestamp><DateUtc dt:dt=""string"">2019-02-26T21:17:00Z</DateUtc></StartTime><FrequencyChanges><FrequencyChange><Frequency dt:dt=""r8"">3020400</Frequency><Timestamp dt:dt=""r8"">1808513083333</Timestamp><Current dt:dt=""r8"">0</Current><DateUtc dt:dt=""string"">2019-02-26T21:17:00Z</DateUtc></FrequencyChange></FrequencyChanges></Clock>\n"	000_R01_VB_allProc-43-1	60.022	1.0.0.185	1	332465284	Professional	2.0.10.356	2.0.10.356	02-26-2019	2/26/2019 9:17:00 PM	16:17:00	2.0.10.252	2	0	0	324290	18	324290	3998	-999999	562292	-3	484231	0	Run5Proc	2	1	2	RunList	3	HighSmallED	8000	0	398263	0	398263	0	398263	0	B5HighSmallEDBlockProc	n/a	n/a	n/a	n/a	n/a	n/a	n/a	n/a	n/a	n/a	n/a	n/a	3.0	1.0	3.0	Run5BlockList	3	n/a	n/a	n/a	n/a	n/a	n/a	n/a	n/a	n/a	n/a	n/a	n/a	n/a	n/a	n/a	n/a	n/a	n/a	n/a	n/a	n/a	n/a	n/a	n/a	n/a	n/a	n/a	3.0	1.0	3.0	n/a	n/a	n/a	n/a	n/a	n/a	n/a	n/a	n/a	n/a	n/a	n/a	n/a	n/a	n/a	n/a	n/a	n/a	n/a	n/a	n/a	n/a	n/a	n/a	n/a	n/a	n/a	n/a	n/a	n/a	n/a	n/a	n/a	n/a	n/a	n/a	n/a	n/a	n/a	n/a	n/a	n/a	n/a	n/a	n/a	n/a	n/a	n/a	n/a	n/a	n/a	n/a	n/a	n/a	n/a	n/a	n/a	n/a	n/a	n/a	B5_03.jpg	500	0	388766	-1	388766	0	TrialProc1	B5HighSmallEDBlockList	2500	0	386267	0	386267	0	386267	2499	d	1117	387384	61.979
65	2.5	000_R01_VB_allProc	43	1	"<?xml version=""1.0""?>\n<Clock xmlns:dt=""urn:schemas-microsoft-com:datatypes""><Description dt:dt=""string"">E-Prime Primary Realtime Clock</Description><StartTime><Timestamp dt:dt=""int"">0</Timestamp><DateUtc dt:dt=""string"">2019-02-26T21:17:00Z</DateUtc></StartTime><FrequencyChanges><FrequencyChange><Frequency dt:dt=""r8"">3020400</Frequency><Timestamp dt:dt=""r8"">1808513083333</Timestamp><Current dt:dt=""r8"">0</Current><DateUtc dt:dt=""string"">2019-02-26T21:17:00Z</DateUtc></FrequencyChange></FrequencyChanges></Clock>\n"	000_R01_VB_allProc-43-1	60.022	1.0.0.185	1	332465284	Professional	2.0.10.356	2.0.10.356	02-26-2019	2/26/2019 9:17:00 PM	16:17:00	2.0.10.252	2	0	0	324290	18	324290	3998	-999999	562292	-3	484231	0	Run5Proc	2	1	2	RunList	3	HighSmallED	8000	0	398263	0	398263	0	398263	0	B5HighSmallEDBlockProc	n/a	n/a	n/a	n/a	n/a	n/a	n/a	n/a	n/a	n/a	n/a	n/a	3.0	1.0	3.0	Run5BlockList	4	n/a	n/a	n/a	n/a	n/a	n/a	n/a	n/a	n/a	n/a	n/a	n/a	n/a	n/a	n/a	n/a	n/a	n/a	n/a	n/a	n/a	n/a	n/a	n/a	n/a	n/a	n/a	4.0	1.0	4.0	n/a	n/a	n/a	n/a	n/a	n/a	n/a	n/a	n/a	n/a	n/a	n/a	n/a	n/a	n/a	n/a	n/a	n/a	n/a	n/a	n/a	n/a	n/a	n/a	n/a	n/a	n/a	n/a	n/a	n/a	n/a	n/a	n/a	n/a	n/a	n/a	n/a	n/a	n/a	n/a	n/a	n/a	n/a	n/a	n/a	n/a	n/a	n/a	n/a	n/a	n/a	n/a	n/a	n/a	n/a	n/a	n/a	n/a	n/a	n/a	B5_04.jpg	500	0	391765	-1	391765	0	TrialProc1	B5HighSmallEDBlockList	2500	0	389266	0	389266	0	389266	2499	d	990	390256	64.97800000000001
68	2.5	000_R01_VB_allProc	43	1	"<?xml version=""1.0""?>\n<Clock xmlns:dt=""urn:schemas-microsoft-com:datatypes""><Description dt:dt=""string"">E-Prime Primary Realtime Clock</Description><StartTime><Timestamp dt:dt=""int"">0</Timestamp><DateUtc dt:dt=""string"">2019-02-26T21:17:00Z</DateUtc></StartTime><FrequencyChanges><FrequencyChange><Frequency dt:dt=""r8"">3020400</Frequency><Timestamp dt:dt=""r8"">1808513083333</Timestamp><Current dt:dt=""r8"">0</Current><DateUtc dt:dt=""string"">2019-02-26T21:17:00Z</DateUtc></FrequencyChange></FrequencyChanges></Clock>\n"	000_R01_VB_allProc-43-1	60.022	1.0.0.185	1	332465284	Professional	2.0.10.356	2.0.10.356	02-26-2019	2/26/2019 9:17:00 PM	16:17:00	2.0.10.252	2	0	0	324290	18	324290	3998	-999999	562292	-3	484231	0	Run5Proc	2	1	2	RunList	3	HighSmallED	8000	0	398263	0	398263	0	398263	0	B5HighSmallEDBlockProc	n/a	n/a	n/a	n/a	n/a	n/a	n/a	n/a	n/a	n/a	n/a	n/a	3.0	1.0	3.0	Run5BlockList	5	n/a	n/a	n/a	n/a	n/a	n/a	n/a	n/a	n/a	n/a	n/a	n/a	n/a	n/a	n/a	n/a	n/a	n/a	n/a	n/a	n/a	n/a	n/a	n/a	n/a	n/a	n/a	5.0	1.0	5.0	n/a	n/a	n/a	n/a	n/a	n/a	n/a	n/a	n/a	n/a	n/a	n/a	n/a	n/a	n/a	n/a	n/a	n/a	n/a	n/a	n/a	n/a	n/a	n/a	n/a	n/a	n/a	n/a	n/a	n/a	n/a	n/a	n/a	n/a	n/a	n/a	n/a	n/a	n/a	n/a	n/a	n/a	n/a	n/a	n/a	n/a	n/a	n/a	n/a	n/a	n/a	n/a	n/a	n/a	n/a	n/a	n/a	n/a	n/a	n/a	B5_05.jpg	500	0	394764	-1	394764	0	TrialProc1	B5HighSmallEDBlockList	2500	0	392265	0	392265	0	392265	2499	d	959	393224	67.977
71	2.5	000_R01_VB_allProc	43	1	"<?xml version=""1.0""?>\n<Clock xmlns:dt=""urn:schemas-microsoft-com:datatypes""><Description dt:dt=""string"">E-Prime Primary Realtime Clock</Description><StartTime><Timestamp dt:dt=""int"">0</Timestamp><DateUtc dt:dt=""string"">2019-02-26T21:17:00Z</DateUtc></StartTime><FrequencyChanges><FrequencyChange><Frequency dt:dt=""r8"">3020400</Frequency><Timestamp dt:dt=""r8"">1808513083333</Timestamp><Current dt:dt=""r8"">0</Current><DateUtc dt:dt=""string"">2019-02-26T21:17:00Z</DateUtc></FrequencyChange></FrequencyChanges></Clock>\n"	000_R01_VB_allProc-43-1	60.022	1.0.0.185	1	332465284	Professional	2.0.10.356	2.0.10.356	02-26-2019	2/26/2019 9:17:00 PM	16:17:00	2.0.10.252	2	0	0	324290	18	324290	3998	-999999	562292	-3	484231	0	Run5Proc	2	1	2	RunList	3	HighSmallED	8000	0	398263	0	398263	0	398263	0	B5HighSmallEDBlockProc	n/a	n/a	n/a	n/a	n/a	n/a	n/a	n/a	n/a	n/a	n/a	n/a	3.0	1.0	3.0	Run5BlockList	6	n/a	n/a	n/a	n/a	n/a	n/a	n/a	n/a	n/a	n/a	n/a	n/a	n/a	n/a	n/a	n/a	n/a	n/a	n/a	n/a	n/a	n/a	n/a	n/a	n/a	n/a	n/a	6.0	1.0	6.0	n/a	n/a	n/a	n/a	n/a	n/a	n/a	n/a	n/a	n/a	n/a	n/a	n/a	n/a	n/a	n/a	n/a	n/a	n/a	n/a	n/a	n/a	n/a	n/a	n/a	n/a	n/a	n/a	n/a	n/a	n/a	n/a	n/a	n/a	n/a	n/a	n/a	n/a	n/a	n/a	n/a	n/a	n/a	n/a	n/a	n/a	n/a	n/a	n/a	n/a	n/a	n/a	n/a	n/a	n/a	n/a	n/a	n/a	n/a	n/a	B5_06.jpg	500	0	397763	-1	397763	0	TrialProc1	B5HighSmallEDBlockList	2500	0	395264	0	395264	0	395264	2499	d	1176	396440	70.976
82	2.5	000_R01_VB_allProc	43	1	"<?xml version=""1.0""?>\n<Clock xmlns:dt=""urn:schemas-microsoft-com:datatypes""><Description dt:dt=""string"">E-Prime Primary Realtime Clock</Description><StartTime><Timestamp dt:dt=""int"">0</Timestamp><DateUtc dt:dt=""string"">2019-02-26T21:17:00Z</DateUtc></StartTime><FrequencyChanges><FrequencyChange><Frequency dt:dt=""r8"">3020400</Frequency><Timestamp dt:dt=""r8"">1808513083333</Timestamp><Current dt:dt=""r8"">0</Current><DateUtc dt:dt=""string"">2019-02-26T21:17:00Z</DateUtc></FrequencyChange></FrequencyChanges></Clock>\n"	000_R01_VB_allProc-43-1	60.022	1.0.0.185	1	332465284	Professional	2.0.10.356	2.0.10.356	02-26-2019	2/26/2019 9:17:00 PM	16:17:00	2.0.10.252	2	0	0	324290	18	324290	3998	-999999	562292	-3	484231	0	Run5Proc	2	1	2	RunList	4	OfficeLarge	8000	0	424253	0	424253	0	424253	0	E5OfficeLargeBlockProc	n/a	n/a	n/a	n/a	n/a	n/a	n/a	n/a	n/a	n/a	n/a	n/a	4.0	1.0	4.0	Run5BlockList	1	n/a	n/a	n/a	n/a	n/a	n/a	n/a	n/a	n/a	n/a	n/a	n/a	n/a	n/a	n/a	n/a	n/a	n/a	n/a	n/a	n/a	n/a	n/a	n/a	n/a	n/a	n/a	n/a	n/a	n/a	n/a	n/a	n/a	n/a	n/a	n/a	n/a	n/a	n/a	n/a	n/a	n/a	n/a	n/a	n/a	n/a	n/a	n/a	n/a	n/a	n/a	n/a	n/a	n/a	n/a	n/a	n/a	n/a	n/a	n/a	n/a	n/a	n/a	n/a	n/a	n/a	n/a	n/a	n/a	n/a	n/a	n/a	1.0	1.0	1.0	n/a	n/a	n/a	n/a	n/a	n/a	n/a	n/a	n/a	n/a	n/a	n/a	n/a	n/a	n/a	E5_01.jpg	500	0	408759	-1	408759	0	TrialProc1	E5OfficeLargeBlockList	2500	0	406260	0	406260	-3	406260	2499	d	2019	408279	81.972
85	2.5	000_R01_VB_allProc	43	1	"<?xml version=""1.0""?>\n<Clock xmlns:dt=""urn:schemas-microsoft-com:datatypes""><Description dt:dt=""string"">E-Prime Primary Realtime Clock</Description><StartTime><Timestamp dt:dt=""int"">0</Timestamp><DateUtc dt:dt=""string"">2019-02-26T21:17:00Z</DateUtc></StartTime><FrequencyChanges><FrequencyChange><Frequency dt:dt=""r8"">3020400</Frequency><Timestamp dt:dt=""r8"">1808513083333</Timestamp><Current dt:dt=""r8"">0</Current><DateUtc dt:dt=""string"">2019-02-26T21:17:00Z</DateUtc></FrequencyChange></FrequencyChanges></Clock>\n"	000_R01_VB_allProc-43-1	60.022	1.0.0.185	1	332465284	Professional	2.0.10.356	2.0.10.356	02-26-2019	2/26/2019 9:17:00 PM	16:17:00	2.0.10.252	2	0	0	324290	18	324290	3998	-999999	562292	-3	484231	0	Run5Proc	2	1	2	RunList	4	OfficeLarge	8000	0	424253	0	424253	0	424253	0	E5OfficeLargeBlockProc	n/a	n/a	n/a	n/a	n/a	n/a	n/a	n/a	n/a	n/a	n/a	n/a	4.0	1.0	4.0	Run5BlockList	2	n/a	n/a	n/a	n/a	n/a	n/a	n/a	n/a	n/a	n/a	n/a	n/a	n/a	n/a	n/a	n/a	n/a	n/a	n/a	n/a	n/a	n/a	n/a	n/a	n/a	n/a	n/a	n/a	n/a	n/a	n/a	n/a	n/a	n/a	n/a	n/a	n/a	n/a	n/a	n/a	n/a	n/a	n/a	n/a	n/a	n/a	n/a	n/a	n/a	n/a	n/a	n/a	n/a	n/a	n/a	n/a	n/a	n/a	n/a	n/a	n/a	n/a	n/a	n/a	n/a	n/a	n/a	n/a	n/a	n/a	n/a	n/a	2.0	1.0	2.0	n/a	n/a	n/a	n/a	n/a	n/a	n/a	n/a	n/a	n/a	n/a	n/a	n/a	n/a	n/a	E5_02.jpg	500	0	411758	0	411758	0	TrialProc1	E5OfficeLargeBlockList	2500	1	409259	1	409259	-1	409258	2500	d	1093	410351	84.97
88	2.5	000_R01_VB_allProc	43	1	"<?xml version=""1.0""?>\n<Clock xmlns:dt=""urn:schemas-microsoft-com:datatypes""><Description dt:dt=""string"">E-Prime Primary Realtime Clock</Description><StartTime><Timestamp dt:dt=""int"">0</Timestamp><DateUtc dt:dt=""string"">2019-02-26T21:17:00Z</DateUtc></StartTime><FrequencyChanges><FrequencyChange><Frequency dt:dt=""r8"">3020400</Frequency><Timestamp dt:dt=""r8"">1808513083333</Timestamp><Current dt:dt=""r8"">0</Current><DateUtc dt:dt=""string"">2019-02-26T21:17:00Z</DateUtc></FrequencyChange></FrequencyChanges></Clock>\n"	000_R01_VB_allProc-43-1	60.022	1.0.0.185	1	332465284	Professional	2.0.10.356	2.0.10.356	02-26-2019	2/26/2019 9:17:00 PM	16:17:00	2.0.10.252	2	0	0	324290	18	324290	3998	-999999	562292	-3	484231	0	Run5Proc	2	1	2	RunList	4	OfficeLarge	8000	0	424253	0	424253	0	424253	0	E5OfficeLargeBlockProc	n/a	n/a	n/a	n/a	n/a	n/a	n/a	n/a	n/a	n/a	n/a	n/a	4.0	1.0	4.0	Run5BlockList	3	n/a	n/a	n/a	n/a	n/a	n/a	n/a	n/a	n/a	n/a	n/a	n/a	n/a	n/a	n/a	n/a	n/a	n/a	n/a	n/a	n/a	n/a	n/a	n/a	n/a	n/a	n/a	n/a	n/a	n/a	n/a	n/a	n/a	n/a	n/a	n/a	n/a	n/a	n/a	n/a	n/a	n/a	n/a	n/a	n/a	n/a	n/a	n/a	n/a	n/a	n/a	n/a	n/a	n/a	n/a	n/a	n/a	n/a	n/a	n/a	n/a	n/a	n/a	n/a	n/a	n/a	n/a	n/a	n/a	n/a	n/a	n/a	3.0	1.0	3.0	n/a	n/a	n/a	n/a	n/a	n/a	n/a	n/a	n/a	n/a	n/a	n/a	n/a	n/a	n/a	E5_03.jpg	500	1	414757	-1	414756	0	TrialProc1	E5OfficeLargeBlockList	2500	0	412257	0	412257	-1	412257	2499	d	1158	413415	87.969
91	2.5	000_R01_VB_allProc	43	1	"<?xml version=""1.0""?>\n<Clock xmlns:dt=""urn:schemas-microsoft-com:datatypes""><Description dt:dt=""string"">E-Prime Primary Realtime Clock</Description><StartTime><Timestamp dt:dt=""int"">0</Timestamp><DateUtc dt:dt=""string"">2019-02-26T21:17:00Z</DateUtc></StartTime><FrequencyChanges><FrequencyChange><Frequency dt:dt=""r8"">3020400</Frequency><Timestamp dt:dt=""r8"">1808513083333</Timestamp><Current dt:dt=""r8"">0</Current><DateUtc dt:dt=""string"">2019-02-26T21:17:00Z</DateUtc></FrequencyChange></FrequencyChanges></Clock>\n"	000_R01_VB_allProc-43-1	60.022	1.0.0.185	1	332465284	Professional	2.0.10.356	2.0.10.356	02-26-2019	2/26/2019 9:17:00 PM	16:17:00	2.0.10.252	2	0	0	324290	18	324290	3998	-999999	562292	-3	484231	0	Run5Proc	2	1	2	RunList	4	OfficeLarge	8000	0	424253	0	424253	0	424253	0	E5OfficeLargeBlockProc	n/a	n/a	n/a	n/a	n/a	n/a	n/a	n/a	n/a	n/a	n/a	n/a	4.0	1.0	4.0	Run5BlockList	4	n/a	n/a	n/a	n/a	n/a	n/a	n/a	n/a	n/a	n/a	n/a	n/a	n/a	n/a	n/a	n/a	n/a	n/a	n/a	n/a	n/a	n/a	n/a	n/a	n/a	n/a	n/a	n/a	n/a	n/a	n/a	n/a	n/a	n/a	n/a	n/a	n/a	n/a	n/a	n/a	n/a	n/a	n/a	n/a	n/a	n/a	n/a	n/a	n/a	n/a	n/a	n/a	n/a	n/a	n/a	n/a	n/a	n/a	n/a	n/a	n/a	n/a	n/a	n/a	n/a	n/a	n/a	n/a	n/a	n/a	n/a	n/a	4.0	1.0	4.0	n/a	n/a	n/a	n/a	n/a	n/a	n/a	n/a	n/a	n/a	n/a	n/a	n/a	n/a	n/a	E5_04.jpg	500	0	417755	-1	417755	0	TrialProc1	E5OfficeLargeBlockList	2500	0	415256	0	415256	0	415256	2499	n/a	0	0	90.968
94	2.5	000_R01_VB_allProc	43	1	"<?xml version=""1.0""?>\n<Clock xmlns:dt=""urn:schemas-microsoft-com:datatypes""><Description dt:dt=""string"">E-Prime Primary Realtime Clock</Description><StartTime><Timestamp dt:dt=""int"">0</Timestamp><DateUtc dt:dt=""string"">2019-02-26T21:17:00Z</DateUtc></StartTime><FrequencyChanges><FrequencyChange><Frequency dt:dt=""r8"">3020400</Frequency><Timestamp dt:dt=""r8"">1808513083333</Timestamp><Current dt:dt=""r8"">0</Current><DateUtc dt:dt=""string"">2019-02-26T21:17:00Z</DateUtc></FrequencyChange></FrequencyChanges></Clock>\n"	000_R01_VB_allProc-43-1	60.022	1.0.0.185	1	332465284	Professional	2.0.10.356	2.0.10.356	02-26-2019	2/26/2019 9:17:00 PM	16:17:00	2.0.10.252	2	0	0	324290	18	324290	3998	-999999	562292	-3	484231	0	Run5Proc	2	1	2	RunList	4	OfficeLarge	8000	0	424253	0	424253	0	424253	0	E5OfficeLargeBlockProc	n/a	n/a	n/a	n/a	n/a	n/a	n/a	n/a	n/a	n/a	n/a	n/a	4.0	1.0	4.0	Run5BlockList	5	n/a	n/a	n/a	n/a	n/a	n/a	n/a	n/a	n/a	n/a	n/a	n/a	n/a	n/a	n/a	n/a	n/a	n/a	n/a	n/a	n/a	n/a	n/a	n/a	n/a	n/a	n/a	n/a	n/a	n/a	n/a	n/a	n/a	n/a	n/a	n/a	n/a	n/a	n/a	n/a	n/a	n/a	n/a	n/a	n/a	n/a	n/a	n/a	n/a	n/a	n/a	n/a	n/a	n/a	n/a	n/a	n/a	n/a	n/a	n/a	n/a	n/a	n/a	n/a	n/a	n/a	n/a	n/a	n/a	n/a	n/a	n/a	5.0	1.0	5.0	n/a	n/a	n/a	n/a	n/a	n/a	n/a	n/a	n/a	n/a	n/a	n/a	n/a	n/a	n/a	E5_05.jpg	500	0	420754	-1	420754	0	TrialProc1	E5OfficeLargeBlockList	2500	0	418255	0	418255	0	418255	2499	c	1000	419255	93.967
97	2.5	000_R01_VB_allProc	43	1	"<?xml version=""1.0""?>\n<Clock xmlns:dt=""urn:schemas-microsoft-com:datatypes""><Description dt:dt=""string"">E-Prime Primary Realtime Clock</Description><StartTime><Timestamp dt:dt=""int"">0</Timestamp><DateUtc dt:dt=""string"">2019-02-26T21:17:00Z</DateUtc></StartTime><FrequencyChanges><FrequencyChange><Frequency dt:dt=""r8"">3020400</Frequency><Timestamp dt:dt=""r8"">1808513083333</Timestamp><Current dt:dt=""r8"">0</Current><DateUtc dt:dt=""string"">2019-02-26T21:17:00Z</DateUtc></FrequencyChange></FrequencyChanges></Clock>\n"	000_R01_VB_allProc-43-1	60.022	1.0.0.185	1	332465284	Professional	2.0.10.356	2.0.10.356	02-26-2019	2/26/2019 9:17:00 PM	16:17:00	2.0.10.252	2	0	0	324290	18	324290	3998	-999999	562292	-3	484231	0	Run5Proc	2	1	2	RunList	4	OfficeLarge	8000	0	424253	0	424253	0	424253	0	E5OfficeLargeBlockProc	n/a	n/a	n/a	n/a	n/a	n/a	n/a	n/a	n/a	n/a	n/a	n/a	4.0	1.0	4.0	Run5BlockList	6	n/a	n/a	n/a	n/a	n/a	n/a	n/a	n/a	n/a	n/a	n/a	n/a	n/a	n/a	n/a	n/a	n/a	n/a	n/a	n/a	n/a	n/a	n/a	n/a	n/a	n/a	n/a	n/a	n/a	n/a	n/a	n/a	n/a	n/a	n/a	n/a	n/a	n/a	n/a	n/a	n/a	n/a	n/a	n/a	n/a	n/a	n/a	n/a	n/a	n/a	n/a	n/a	n/a	n/a	n/a	n/a	n/a	n/a	n/a	n/a	n/a	n/a	n/a	n/a	n/a	n/a	n/a	n/a	n/a	n/a	n/a	n/a	6.0	1.0	6.0	n/a	n/a	n/a	n/a	n/a	n/a	n/a	n/a	n/a	n/a	n/a	n/a	n/a	n/a	n/a	E5_06.jpg	500	0	423753	-1	423753	0	TrialProc1	E5OfficeLargeBlockList	2500	0	421254	0	421254	0	421254	2499	c	1961	423215	96.966
108	2.5	000_R01_VB_allProc	43	1	"<?xml version=""1.0""?>\n<Clock xmlns:dt=""urn:schemas-microsoft-com:datatypes""><Description dt:dt=""string"">E-Prime Primary Realtime Clock</Description><StartTime><Timestamp dt:dt=""int"">0</Timestamp><DateUtc dt:dt=""string"">2019-02-26T21:17:00Z</DateUtc></StartTime><FrequencyChanges><FrequencyChange><Frequency dt:dt=""r8"">3020400</Frequency><Timestamp dt:dt=""r8"">1808513083333</Timestamp><Current dt:dt=""r8"">0</Current><DateUtc dt:dt=""string"">2019-02-26T21:17:00Z</DateUtc></FrequencyChange></FrequencyChanges></Clock>\n"	000_R01_VB_allProc-43-1	60.022	1.0.0.185	1	332465284	Professional	2.0.10.356	2.0.10.356	02-26-2019	2/26/2019 9:17:00 PM	16:17:00	2.0.10.252	2	0	0	324290	18	324290	3998	-999999	562292	-3	484231	0	Run5Proc	2	1	2	RunList	5	HighLargeED	8000	0	450243	0	450243	-1	450243	0	A5HighLargeEDBlockProc	n/a	n/a	n/a	n/a	n/a	n/a	n/a	n/a	n/a	n/a	n/a	n/a	5.0	1.0	5.0	Run5BlockList	1	n/a	n/a	n/a	n/a	n/a	n/a	n/a	n/a	n/a	n/a	n/a	n/a	1.0	1.0	1.0	n/a	n/a	n/a	n/a	n/a	n/a	n/a	n/a	n/a	n/a	n/a	n/a	n/a	n/a	n/a	n/a	n/a	n/a	n/a	n/a	n/a	n/a	n/a	n/a	n/a	n/a	n/a	n/a	n/a	n/a	n/a	n/a	n/a	n/a	n/a	n/a	n/a	n/a	n/a	n/a	n/a	n/a	n/a	n/a	n/a	n/a	n/a	n/a	n/a	n/a	n/a	n/a	n/a	n/a	n/a	n/a	n/a	n/a	n/a	n/a	n/a	n/a	n/a	n/a	n/a	n/a	n/a	n/a	n/a	n/a	n/a	n/a	n/a	n/a	n/a	A5_01.jpg	500	0	434749	-1	434749	0	TrialProc1	A5HighLargeEDBlockList	2500	0	432250	0	432250	-3	432250	2499	d	1037	433287	107.962
111	2.5	000_R01_VB_allProc	43	1	"<?xml version=""1.0""?>\n<Clock xmlns:dt=""urn:schemas-microsoft-com:datatypes""><Description dt:dt=""string"">E-Prime Primary Realtime Clock</Description><StartTime><Timestamp dt:dt=""int"">0</Timestamp><DateUtc dt:dt=""string"">2019-02-26T21:17:00Z</DateUtc></StartTime><FrequencyChanges><FrequencyChange><Frequency dt:dt=""r8"">3020400</Frequency><Timestamp dt:dt=""r8"">1808513083333</Timestamp><Current dt:dt=""r8"">0</Current><DateUtc dt:dt=""string"">2019-02-26T21:17:00Z</DateUtc></FrequencyChange></FrequencyChanges></Clock>\n"	000_R01_VB_allProc-43-1	60.022	1.0.0.185	1	332465284	Professional	2.0.10.356	2.0.10.356	02-26-2019	2/26/2019 9:17:00 PM	16:17:00	2.0.10.252	2	0	0	324290	18	324290	3998	-999999	562292	-3	484231	0	Run5Proc	2	1	2	RunList	5	HighLargeED	8000	0	450243	0	450243	-1	450243	0	A5HighLargeEDBlockProc	n/a	n/a	n/a	n/a	n/a	n/a	n/a	n/a	n/a	n/a	n/a	n/a	5.0	1.0	5.0	Run5BlockList	2	n/a	n/a	n/a	n/a	n/a	n/a	n/a	n/a	n/a	n/a	n/a	n/a	2.0	1.0	2.0	n/a	n/a	n/a	n/a	n/a	n/a	n/a	n/a	n/a	n/a	n/a	n/a	n/a	n/a	n/a	n/a	n/a	n/a	n/a	n/a	n/a	n/a	n/a	n/a	n/a	n/a	n/a	n/a	n/a	n/a	n/a	n/a	n/a	n/a	n/a	n/a	n/a	n/a	n/a	n/a	n/a	n/a	n/a	n/a	n/a	n/a	n/a	n/a	n/a	n/a	n/a	n/a	n/a	n/a	n/a	n/a	n/a	n/a	n/a	n/a	n/a	n/a	n/a	n/a	n/a	n/a	n/a	n/a	n/a	n/a	n/a	n/a	n/a	n/a	n/a	A5_02.jpg	500	0	437748	-1	437748	0	TrialProc1	A5HighLargeEDBlockList	2500	0	435249	0	435249	0	435249	2499	d	742	435991	110.961
114	2.5	000_R01_VB_allProc	43	1	"<?xml version=""1.0""?>\n<Clock xmlns:dt=""urn:schemas-microsoft-com:datatypes""><Description dt:dt=""string"">E-Prime Primary Realtime Clock</Description><StartTime><Timestamp dt:dt=""int"">0</Timestamp><DateUtc dt:dt=""string"">2019-02-26T21:17:00Z</DateUtc></StartTime><FrequencyChanges><FrequencyChange><Frequency dt:dt=""r8"">3020400</Frequency><Timestamp dt:dt=""r8"">1808513083333</Timestamp><Current dt:dt=""r8"">0</Current><DateUtc dt:dt=""string"">2019-02-26T21:17:00Z</DateUtc></FrequencyChange></FrequencyChanges></Clock>\n"	000_R01_VB_allProc-43-1	60.022	1.0.0.185	1	332465284	Professional	2.0.10.356	2.0.10.356	02-26-2019	2/26/2019 9:17:00 PM	16:17:00	2.0.10.252	2	0	0	324290	18	324290	3998	-999999	562292	-3	484231	0	Run5Proc	2	1	2	RunList	5	HighLargeED	8000	0	450243	0	450243	-1	450243	0	A5HighLargeEDBlockProc	n/a	n/a	n/a	n/a	n/a	n/a	n/a	n/a	n/a	n/a	n/a	n/a	5.0	1.0	5.0	Run5BlockList	3	n/a	n/a	n/a	n/a	n/a	n/a	n/a	n/a	n/a	n/a	n/a	n/a	3.0	1.0	3.0	n/a	n/a	n/a	n/a	n/a	n/a	n/a	n/a	n/a	n/a	n/a	n/a	n/a	n/a	n/a	n/a	n/a	n/a	n/a	n/a	n/a	n/a	n/a	n/a	n/a	n/a	n/a	n/a	n/a	n/a	n/a	n/a	n/a	n/a	n/a	n/a	n/a	n/a	n/a	n/a	n/a	n/a	n/a	n/a	n/a	n/a	n/a	n/a	n/a	n/a	n/a	n/a	n/a	n/a	n/a	n/a	n/a	n/a	n/a	n/a	n/a	n/a	n/a	n/a	n/a	n/a	n/a	n/a	n/a	n/a	n/a	n/a	n/a	n/a	n/a	A5_03.jpg	500	0	440747	-1	440747	0	TrialProc1	A5HighLargeEDBlockList	2500	0	438248	0	438248	0	438248	2499	d	1191	439439	113.96
117	2.5	000_R01_VB_allProc	43	1	"<?xml version=""1.0""?>\n<Clock xmlns:dt=""urn:schemas-microsoft-com:datatypes""><Description dt:dt=""string"">E-Prime Primary Realtime Clock</Description><StartTime><Timestamp dt:dt=""int"">0</Timestamp><DateUtc dt:dt=""string"">2019-02-26T21:17:00Z</DateUtc></StartTime><FrequencyChanges><FrequencyChange><Frequency dt:dt=""r8"">3020400</Frequency><Timestamp dt:dt=""r8"">1808513083333</Timestamp><Current dt:dt=""r8"">0</Current><DateUtc dt:dt=""string"">2019-02-26T21:17:00Z</DateUtc></FrequencyChange></FrequencyChanges></Clock>\n"	000_R01_VB_allProc-43-1	60.022	1.0.0.185	1	332465284	Professional	2.0.10.356	2.0.10.356	02-26-2019	2/26/2019 9:17:00 PM	16:17:00	2.0.10.252	2	0	0	324290	18	324290	3998	-999999	562292	-3	484231	0	Run5Proc	2	1	2	RunList	5	HighLargeED	8000	0	450243	0	450243	-1	450243	0	A5HighLargeEDBlockProc	n/a	n/a	n/a	n/a	n/a	n/a	n/a	n/a	n/a	n/a	n/a	n/a	5.0	1.0	5.0	Run5BlockList	4	n/a	n/a	n/a	n/a	n/a	n/a	n/a	n/a	n/a	n/a	n/a	n/a	4.0	1.0	4.0	n/a	n/a	n/a	n/a	n/a	n/a	n/a	n/a	n/a	n/a	n/a	n/a	n/a	n/a	n/a	n/a	n/a	n/a	n/a	n/a	n/a	n/a	n/a	n/a	n/a	n/a	n/a	n/a	n/a	n/a	n/a	n/a	n/a	n/a	n/a	n/a	n/a	n/a	n/a	n/a	n/a	n/a	n/a	n/a	n/a	n/a	n/a	n/a	n/a	n/a	n/a	n/a	n/a	n/a	n/a	n/a	n/a	n/a	n/a	n/a	n/a	n/a	n/a	n/a	n/a	n/a	n/a	n/a	n/a	n/a	n/a	n/a	n/a	n/a	n/a	A5_04.jpg	500	0	443746	-1	443746	0	TrialProc1	A5HighLargeEDBlockList	2500	0	441247	0	441247	0	441247	2499	d	968	442215	116.959
120	2.5	000_R01_VB_allProc	43	1	"<?xml version=""1.0""?>\n<Clock xmlns:dt=""urn:schemas-microsoft-com:datatypes""><Description dt:dt=""string"">E-Prime Primary Realtime Clock</Description><StartTime><Timestamp dt:dt=""int"">0</Timestamp><DateUtc dt:dt=""string"">2019-02-26T21:17:00Z</DateUtc></StartTime><FrequencyChanges><FrequencyChange><Frequency dt:dt=""r8"">3020400</Frequency><Timestamp dt:dt=""r8"">1808513083333</Timestamp><Current dt:dt=""r8"">0</Current><DateUtc dt:dt=""string"">2019-02-26T21:17:00Z</DateUtc></FrequencyChange></FrequencyChanges></Clock>\n"	000_R01_VB_allProc-43-1	60.022	1.0.0.185	1	332465284	Professional	2.0.10.356	2.0.10.356	02-26-2019	2/26/2019 9:17:00 PM	16:17:00	2.0.10.252	2	0	0	324290	18	324290	3998	-999999	562292	-3	484231	0	Run5Proc	2	1	2	RunList	5	HighLargeED	8000	0	450243	0	450243	-1	450243	0	A5HighLargeEDBlockProc	n/a	n/a	n/a	n/a	n/a	n/a	n/a	n/a	n/a	n/a	n/a	n/a	5.0	1.0	5.0	Run5BlockList	5	n/a	n/a	n/a	n/a	n/a	n/a	n/a	n/a	n/a	n/a	n/a	n/a	5.0	1.0	5.0	n/a	n/a	n/a	n/a	n/a	n/a	n/a	n/a	n/a	n/a	n/a	n/a	n/a	n/a	n/a	n/a	n/a	n/a	n/a	n/a	n/a	n/a	n/a	n/a	n/a	n/a	n/a	n/a	n/a	n/a	n/a	n/a	n/a	n/a	n/a	n/a	n/a	n/a	n/a	n/a	n/a	n/a	n/a	n/a	n/a	n/a	n/a	n/a	n/a	n/a	n/a	n/a	n/a	n/a	n/a	n/a	n/a	n/a	n/a	n/a	n/a	n/a	n/a	n/a	n/a	n/a	n/a	n/a	n/a	n/a	n/a	n/a	n/a	n/a	n/a	A5_05.jpg	500	0	446745	-1	446745	0	TrialProc1	A5HighLargeEDBlockList	2500	0	444246	0	444246	0	444246	2499	d	1929	446175	119.958
123	2.5	000_R01_VB_allProc	43	1	"<?xml version=""1.0""?>\n<Clock xmlns:dt=""urn:schemas-microsoft-com:datatypes""><Description dt:dt=""string"">E-Prime Primary Realtime Clock</Description><StartTime><Timestamp dt:dt=""int"">0</Timestamp><DateUtc dt:dt=""string"">2019-02-26T21:17:00Z</DateUtc></StartTime><FrequencyChanges><FrequencyChange><Frequency dt:dt=""r8"">3020400</Frequency><Timestamp dt:dt=""r8"">1808513083333</Timestamp><Current dt:dt=""r8"">0</Current><DateUtc dt:dt=""string"">2019-02-26T21:17:00Z</DateUtc></FrequencyChange></FrequencyChanges></Clock>\n"	000_R01_VB_allProc-43-1	60.022	1.0.0.185	1	332465284	Professional	2.0.10.356	2.0.10.356	02-26-2019	2/26/2019 9:17:00 PM	16:17:00	2.0.10.252	2	0	0	324290	18	324290	3998	-999999	562292	-3	484231	0	Run5Proc	2	1	2	RunList	5	HighLargeED	8000	0	450243	0	450243	-1	450243	0	A5HighLargeEDBlockProc	n/a	n/a	n/a	n/a	n/a	n/a	n/a	n/a	n/a	n/a	n/a	n/a	5.0	1.0	5.0	Run5BlockList	6	n/a	n/a	n/a	n/a	n/a	n/a	n/a	n/a	n/a	n/a	n/a	n/a	6.0	1.0	6.0	n/a	n/a	n/a	n/a	n/a	n/a	n/a	n/a	n/a	n/a	n/a	n/a	n/a	n/a	n/a	n/a	n/a	n/a	n/a	n/a	n/a	n/a	n/a	n/a	n/a	n/a	n/a	n/a	n/a	n/a	n/a	n/a	n/a	n/a	n/a	n/a	n/a	n/a	n/a	n/a	n/a	n/a	n/a	n/a	n/a	n/a	n/a	n/a	n/a	n/a	n/a	n/a	n/a	n/a	n/a	n/a	n/a	n/a	n/a	n/a	n/a	n/a	n/a	n/a	n/a	n/a	n/a	n/a	n/a	n/a	n/a	n/a	n/a	n/a	n/a	A5_06.jpg	500	0	449744	0	449744	0	TrialProc1	A5HighLargeEDBlockList	2500	1	447245	1	447245	-1	447244	2500	d	883	448127	122.956
134	2.5	000_R01_VB_allProc	43	1	"<?xml version=""1.0""?>\n<Clock xmlns:dt=""urn:schemas-microsoft-com:datatypes""><Description dt:dt=""string"">E-Prime Primary Realtime Clock</Description><StartTime><Timestamp dt:dt=""int"">0</Timestamp><DateUtc dt:dt=""string"">2019-02-26T21:17:00Z</DateUtc></StartTime><FrequencyChanges><FrequencyChange><Frequency dt:dt=""r8"">3020400</Frequency><Timestamp dt:dt=""r8"">1808513083333</Timestamp><Current dt:dt=""r8"">0</Current><DateUtc dt:dt=""string"">2019-02-26T21:17:00Z</DateUtc></FrequencyChange></FrequencyChanges></Clock>\n"	000_R01_VB_allProc-43-1	60.022	1.0.0.185	1	332465284	Professional	2.0.10.356	2.0.10.356	02-26-2019	2/26/2019 9:17:00 PM	16:17:00	2.0.10.252	2	0	0	324290	18	324290	3998	-999999	562292	-3	484231	0	Run5Proc	2	1	2	RunList	6	LowSmallED	8000	0	476234	0	476234	0	476234	0	D5LowSmallEDBlockProc	n/a	n/a	n/a	n/a	n/a	n/a	n/a	n/a	n/a	n/a	n/a	n/a	6.0	1.0	6.0	Run5BlockList	1	n/a	n/a	n/a	n/a	n/a	n/a	n/a	n/a	n/a	n/a	n/a	n/a	n/a	n/a	n/a	n/a	n/a	n/a	n/a	n/a	n/a	n/a	n/a	n/a	n/a	n/a	n/a	n/a	n/a	n/a	n/a	n/a	n/a	n/a	n/a	n/a	n/a	n/a	n/a	n/a	n/a	n/a	n/a	n/a	n/a	n/a	n/a	n/a	n/a	n/a	n/a	n/a	n/a	n/a	n/a	n/a	n/a	1.0	1.0	1.0	n/a	n/a	n/a	n/a	n/a	n/a	n/a	n/a	n/a	n/a	n/a	n/a	n/a	n/a	n/a	n/a	n/a	n/a	n/a	n/a	n/a	n/a	n/a	n/a	n/a	n/a	n/a	n/a	n/a	n/a	D5_01.jpg	500	1	460740	-1	460739	0	TrialProc1	D5LowSmallEDBlockList	2500	0	458241	0	458240	-3	458240	2499	c	1599	459839	133.952
137	2.5	000_R01_VB_allProc	43	1	"<?xml version=""1.0""?>\n<Clock xmlns:dt=""urn:schemas-microsoft-com:datatypes""><Description dt:dt=""string"">E-Prime Primary Realtime Clock</Description><StartTime><Timestamp dt:dt=""int"">0</Timestamp><DateUtc dt:dt=""string"">2019-02-26T21:17:00Z</DateUtc></StartTime><FrequencyChanges><FrequencyChange><Frequency dt:dt=""r8"">3020400</Frequency><Timestamp dt:dt=""r8"">1808513083333</Timestamp><Current dt:dt=""r8"">0</Current><DateUtc dt:dt=""string"">2019-02-26T21:17:00Z</DateUtc></FrequencyChange></FrequencyChanges></Clock>\n"	000_R01_VB_allProc-43-1	60.022	1.0.0.185	1	332465284	Professional	2.0.10.356	2.0.10.356	02-26-2019	2/26/2019 9:17:00 PM	16:17:00	2.0.10.252	2	0	0	324290	18	324290	3998	-999999	562292	-3	484231	0	Run5Proc	2	1	2	RunList	6	LowSmallED	8000	0	476234	0	476234	0	476234	0	D5LowSmallEDBlockProc	n/a	n/a	n/a	n/a	n/a	n/a	n/a	n/a	n/a	n/a	n/a	n/a	6.0	1.0	6.0	Run5BlockList	2	n/a	n/a	n/a	n/a	n/a	n/a	n/a	n/a	n/a	n/a	n/a	n/a	n/a	n/a	n/a	n/a	n/a	n/a	n/a	n/a	n/a	n/a	n/a	n/a	n/a	n/a	n/a	n/a	n/a	n/a	n/a	n/a	n/a	n/a	n/a	n/a	n/a	n/a	n/a	n/a	n/a	n/a	n/a	n/a	n/a	n/a	n/a	n/a	n/a	n/a	n/a	n/a	n/a	n/a	n/a	n/a	n/a	2.0	1.0	2.0	n/a	n/a	n/a	n/a	n/a	n/a	n/a	n/a	n/a	n/a	n/a	n/a	n/a	n/a	n/a	n/a	n/a	n/a	n/a	n/a	n/a	n/a	n/a	n/a	n/a	n/a	n/a	n/a	n/a	n/a	D5_02.jpg	500	0	463738	-1	463738	0	TrialProc1	D5LowSmallEDBlockList	2500	0	461239	0	461239	0	461239	2499	c	1920	463159	136.951
140	2.5	000_R01_VB_allProc	43	1	"<?xml version=""1.0""?>\n<Clock xmlns:dt=""urn:schemas-microsoft-com:datatypes""><Description dt:dt=""string"">E-Prime Primary Realtime Clock</Description><StartTime><Timestamp dt:dt=""int"">0</Timestamp><DateUtc dt:dt=""string"">2019-02-26T21:17:00Z</DateUtc></StartTime><FrequencyChanges><FrequencyChange><Frequency dt:dt=""r8"">3020400</Frequency><Timestamp dt:dt=""r8"">1808513083333</Timestamp><Current dt:dt=""r8"">0</Current><DateUtc dt:dt=""string"">2019-02-26T21:17:00Z</DateUtc></FrequencyChange></FrequencyChanges></Clock>\n"	000_R01_VB_allProc-43-1	60.022	1.0.0.185	1	332465284	Professional	2.0.10.356	2.0.10.356	02-26-2019	2/26/2019 9:17:00 PM	16:17:00	2.0.10.252	2	0	0	324290	18	324290	3998	-999999	562292	-3	484231	0	Run5Proc	2	1	2	RunList	6	LowSmallED	8000	0	476234	0	476234	0	476234	0	D5LowSmallEDBlockProc	n/a	n/a	n/a	n/a	n/a	n/a	n/a	n/a	n/a	n/a	n/a	n/a	6.0	1.0	6.0	Run5BlockList	3	n/a	n/a	n/a	n/a	n/a	n/a	n/a	n/a	n/a	n/a	n/a	n/a	n/a	n/a	n/a	n/a	n/a	n/a	n/a	n/a	n/a	n/a	n/a	n/a	n/a	n/a	n/a	n/a	n/a	n/a	n/a	n/a	n/a	n/a	n/a	n/a	n/a	n/a	n/a	n/a	n/a	n/a	n/a	n/a	n/a	n/a	n/a	n/a	n/a	n/a	n/a	n/a	n/a	n/a	n/a	n/a	n/a	3.0	1.0	3.0	n/a	n/a	n/a	n/a	n/a	n/a	n/a	n/a	n/a	n/a	n/a	n/a	n/a	n/a	n/a	n/a	n/a	n/a	n/a	n/a	n/a	n/a	n/a	n/a	n/a	n/a	n/a	n/a	n/a	n/a	D5_03.jpg	500	0	466737	-1	466737	0	TrialProc1	D5LowSmallEDBlockList	2500	0	464238	0	464238	0	464238	2499	c	784	465022	139.95
143	2.5	000_R01_VB_allProc	43	1	"<?xml version=""1.0""?>\n<Clock xmlns:dt=""urn:schemas-microsoft-com:datatypes""><Description dt:dt=""string"">E-Prime Primary Realtime Clock</Description><StartTime><Timestamp dt:dt=""int"">0</Timestamp><DateUtc dt:dt=""string"">2019-02-26T21:17:00Z</DateUtc></StartTime><FrequencyChanges><FrequencyChange><Frequency dt:dt=""r8"">3020400</Frequency><Timestamp dt:dt=""r8"">1808513083333</Timestamp><Current dt:dt=""r8"">0</Current><DateUtc dt:dt=""string"">2019-02-26T21:17:00Z</DateUtc></FrequencyChange></FrequencyChanges></Clock>\n"	000_R01_VB_allProc-43-1	60.022	1.0.0.185	1	332465284	Professional	2.0.10.356	2.0.10.356	02-26-2019	2/26/2019 9:17:00 PM	16:17:00	2.0.10.252	2	0	0	324290	18	324290	3998	-999999	562292	-3	484231	0	Run5Proc	2	1	2	RunList	6	LowSmallED	8000	0	476234	0	476234	0	476234	0	D5LowSmallEDBlockProc	n/a	n/a	n/a	n/a	n/a	n/a	n/a	n/a	n/a	n/a	n/a	n/a	6.0	1.0	6.0	Run5BlockList	4	n/a	n/a	n/a	n/a	n/a	n/a	n/a	n/a	n/a	n/a	n/a	n/a	n/a	n/a	n/a	n/a	n/a	n/a	n/a	n/a	n/a	n/a	n/a	n/a	n/a	n/a	n/a	n/a	n/a	n/a	n/a	n/a	n/a	n/a	n/a	n/a	n/a	n/a	n/a	n/a	n/a	n/a	n/a	n/a	n/a	n/a	n/a	n/a	n/a	n/a	n/a	n/a	n/a	n/a	n/a	n/a	n/a	4.0	1.0	4.0	n/a	n/a	n/a	n/a	n/a	n/a	n/a	n/a	n/a	n/a	n/a	n/a	n/a	n/a	n/a	n/a	n/a	n/a	n/a	n/a	n/a	n/a	n/a	n/a	n/a	n/a	n/a	n/a	n/a	n/a	D5_04.jpg	500	0	469736	-1	469736	0	TrialProc1	D5LowSmallEDBlockList	2500	0	467237	0	467237	0	467237	2499	d	1321	468558	142.949
146	2.5	000_R01_VB_allProc	43	1	"<?xml version=""1.0""?>\n<Clock xmlns:dt=""urn:schemas-microsoft-com:datatypes""><Description dt:dt=""string"">E-Prime Primary Realtime Clock</Description><StartTime><Timestamp dt:dt=""int"">0</Timestamp><DateUtc dt:dt=""string"">2019-02-26T21:17:00Z</DateUtc></StartTime><FrequencyChanges><FrequencyChange><Frequency dt:dt=""r8"">3020400</Frequency><Timestamp dt:dt=""r8"">1808513083333</Timestamp><Current dt:dt=""r8"">0</Current><DateUtc dt:dt=""string"">2019-02-26T21:17:00Z</DateUtc></FrequencyChange></FrequencyChanges></Clock>\n"	000_R01_VB_allProc-43-1	60.022	1.0.0.185	1	332465284	Professional	2.0.10.356	2.0.10.356	02-26-2019	2/26/2019 9:17:00 PM	16:17:00	2.0.10.252	2	0	0	324290	18	324290	3998	-999999	562292	-3	484231	0	Run5Proc	2	1	2	RunList	6	LowSmallED	8000	0	476234	0	476234	0	476234	0	D5LowSmallEDBlockProc	n/a	n/a	n/a	n/a	n/a	n/a	n/a	n/a	n/a	n/a	n/a	n/a	6.0	1.0	6.0	Run5BlockList	5	n/a	n/a	n/a	n/a	n/a	n/a	n/a	n/a	n/a	n/a	n/a	n/a	n/a	n/a	n/a	n/a	n/a	n/a	n/a	n/a	n/a	n/a	n/a	n/a	n/a	n/a	n/a	n/a	n/a	n/a	n/a	n/a	n/a	n/a	n/a	n/a	n/a	n/a	n/a	n/a	n/a	n/a	n/a	n/a	n/a	n/a	n/a	n/a	n/a	n/a	n/a	n/a	n/a	n/a	n/a	n/a	n/a	5.0	1.0	5.0	n/a	n/a	n/a	n/a	n/a	n/a	n/a	n/a	n/a	n/a	n/a	n/a	n/a	n/a	n/a	n/a	n/a	n/a	n/a	n/a	n/a	n/a	n/a	n/a	n/a	n/a	n/a	n/a	n/a	n/a	D5_05.jpg	500	0	472735	-1	472735	0	TrialProc1	D5LowSmallEDBlockList	2500	0	470236	0	470236	0	470236	2499	c	1634	471870	145.948
149	2.5	000_R01_VB_allProc	43	1	"<?xml version=""1.0""?>\n<Clock xmlns:dt=""urn:schemas-microsoft-com:datatypes""><Description dt:dt=""string"">E-Prime Primary Realtime Clock</Description><StartTime><Timestamp dt:dt=""int"">0</Timestamp><DateUtc dt:dt=""string"">2019-02-26T21:17:00Z</DateUtc></StartTime><FrequencyChanges><FrequencyChange><Frequency dt:dt=""r8"">3020400</Frequency><Timestamp dt:dt=""r8"">1808513083333</Timestamp><Current dt:dt=""r8"">0</Current><DateUtc dt:dt=""string"">2019-02-26T21:17:00Z</DateUtc></FrequencyChange></FrequencyChanges></Clock>\n"	000_R01_VB_allProc-43-1	60.022	1.0.0.185	1	332465284	Professional	2.0.10.356	2.0.10.356	02-26-2019	2/26/2019 9:17:00 PM	16:17:00	2.0.10.252	2	0	0	324290	18	324290	3998	-999999	562292	-3	484231	0	Run5Proc	2	1	2	RunList	6	LowSmallED	8000	0	476234	0	476234	0	476234	0	D5LowSmallEDBlockProc	n/a	n/a	n/a	n/a	n/a	n/a	n/a	n/a	n/a	n/a	n/a	n/a	6.0	1.0	6.0	Run5BlockList	6	n/a	n/a	n/a	n/a	n/a	n/a	n/a	n/a	n/a	n/a	n/a	n/a	n/a	n/a	n/a	n/a	n/a	n/a	n/a	n/a	n/a	n/a	n/a	n/a	n/a	n/a	n/a	n/a	n/a	n/a	n/a	n/a	n/a	n/a	n/a	n/a	n/a	n/a	n/a	n/a	n/a	n/a	n/a	n/a	n/a	n/a	n/a	n/a	n/a	n/a	n/a	n/a	n/a	n/a	n/a	n/a	n/a	6.0	1.0	6.0	n/a	n/a	n/a	n/a	n/a	n/a	n/a	n/a	n/a	n/a	n/a	n/a	n/a	n/a	n/a	n/a	n/a	n/a	n/a	n/a	n/a	n/a	n/a	n/a	n/a	n/a	n/a	n/a	n/a	n/a	D5_06.jpg	500	0	475734	-1	475734	0	TrialProc1	D5LowSmallEDBlockList	2500	0	473235	0	473235	0	473235	2499	c	1683	474918	148.947
