onset	duration	experiment_name	sub	ses	clock_information	datafile_basename	display_refreshrate	experiment_version	group	randomseed	runtime_capabilities	runtime_version	runtimeversionexpected	session_date	session_start_date_time_utc	session_time	studio_version	block	fixation2trs_durationerror	fixation2trs_offsetdelay	fixation2trs_offsettime	fixation2trs_onsetdelay	fixation2trs_onsettime	fixation2trs_onsettoonsettime	goodwork_durationerror	goodwork_finishtime	goodwork_onsetdelay	goodwork_onsettime	goodwork_onsettoonsettime	procedure_block	runlist	runlist_cycle	runlist_sample	running_block	trial	condition	interblockinterval_duration	interblockinterval_durationerror	interblockinterval_finishtime	interblockinterval_offsetdelay	interblockinterval_offsettime	interblockinterval_onsetdelay	interblockinterval_onsettime	interblockinterval_onsettoonsettime	procedure_trial	run1blocklist	run1blocklist_cycle	run1blocklist_sample	run2blocklist	run2blocklist_cycle	run2blocklist_sample	run3blocklist	run3blocklist_cycle	run3blocklist_sample	run4blocklist	run4blocklist_cycle	run4blocklist_sample	run5blocklist	run5blocklist_cycle	run5blocklist_sample	running_trial	subtrial	a1highlargeedblocklist	a1highlargeedblocklist_cycle	a1highlargeedblocklist_sample	a2highlargeedblocklist	a2highlargeedblocklist_cycle	a2highlargeedblocklist_sample	a3highlargeedblocklist	a3highlargeedblocklist_cycle	a3highlargeedblocklist_sample	a4highlargeedblocklist	a4highlargeedblocklist_cycle	a4highlargeedblocklist_sample	a5highlargeedblocklist	a5highlargeedblocklist_cycle	a5highlargeedblocklist_sample	b1highsmalledblocklist	b1highsmalledblocklist_cycle	b1highsmalledblocklist_sample	b2highsmalledblocklist	b2highsmalledblocklist_cycle	b2highsmalledblocklist_sample	b3highsmalledblocklist	b3highsmalledblocklist_cycle	b3highsmalledblocklist_sample	b4highsmalledblocklist	b4highsmalledblocklist_cycle	b4highsmalledblocklist_sample	b5highsmalledblocklist	b5highsmalledblocklist_cycle	b5highsmalledblocklist_sample	c1lowlargeedblocklist	c1lowlargeedblocklist_cycle	c1lowlargeedblocklist_sample	c2lowlargeedblocklist	c2lowlargeedblocklist_cycle	c2lowlargeedblocklist_sample	c3lowlargeedblocklist	c3lowlargeedblocklist_cycle	c3lowlargeedblocklist_sample	c4lowlargeedblocklist	c4lowlargeedblocklist_cycle	c4lowlargeedblocklist_sample	c5lowlargeedblocklist	c5lowlargeedblocklist_cycle	c5lowlargeedblocklist_sample	d1lowsmalledblocklist	d1lowsmalledblocklist_cycle	d1lowsmalledblocklist_sample	d2highlargeedblocklist	d2highlargeedblocklist_cycle	d2highlargeedblocklist_sample	d3lowsmalledblocklist	d3lowsmalledblocklist_cycle	d3lowsmalledblocklist_sample	d4lowsmalledblocklist	d4lowsmalledblocklist_cycle	d4lowsmalledblocklist_sample	d5lowsmalledblocklist	d5lowsmalledblocklist_cycle	d5lowsmalledblocklist_sample	e1officelargeblocklist	e1officelargeblocklist_cycle	e1officelargeblocklist_sample	e2officelargeblocklist	e2officelargeblocklist_cycle	e2officelargeblocklist_sample	e3officelargeblocklist	e3officelargeblocklist_cycle	e3officelargeblocklist_sample	e4officelargeblocklist	e4officelargeblocklist_cycle	e4officelargeblocklist_sample	e5officelargeblocklist	e5officelargeblocklist_cycle	e5officelargeblocklist_sample	f1officesmallblocklist	f1officesmallblocklist_cycle	f1officesmallblocklist_sample	f2officesmallblocklist	f2officesmallblocklist_cycle	f2officesmallblocklist_sample	f3officesmallblocklist	f3officesmallblocklist_cycle	f3officesmallblocklist_sample	f4officesmallblocklist	f4officesmallblocklist_cycle	f4officesmallblocklist_sample	f5officesmallblocklist	f5officesmallblocklist_cycle	f5officesmallblocklist_sample	filename	isi_duration	isi_durationerror	isi_finishtime	isi_onsetdelay	isi_onsettime	isi_onsettoonsettime	procedure_subtrial	running_subtrial	stimslide_duration	stimslide_durationerror	stimslide_finishtime	stimslide_offsetdelay	stimslide_offsettime	stimslide_onsetdelay	stimslide_onsettime	stimslide_onsettoonsettime	stimslide_resp	stimslide_rt	stimslide_rttime	onset_unrounded
4	2.5	000_R01_VB_allProc	11	1	"<?xml version=""1.0""?>\n<Clock xmlns:dt=""urn:schemas-microsoft-com:datatypes""><Description dt:dt=""string"">E-Prime Primary Realtime Clock</Description><StartTime><Timestamp dt:dt=""int"">0</Timestamp><DateUtc dt:dt=""string"">2018-08-24T17:52:07Z</DateUtc></StartTime><FrequencyChanges><FrequencyChange><Frequency dt:dt=""r8"">3020390</Frequency><Timestamp dt:dt=""r8"">745344786578</Timestamp><Current dt:dt=""r8"">0</Current><DateUtc dt:dt=""string"">2018-08-24T17:52:07Z</DateUtc></FrequencyChange></FrequencyChanges></Clock>\n"	000_R01_VB_allProc-11-1	60.022	1.0.0.185	1	-1978907988	Professional	2.0.10.356	2.0.10.356	08-24-2018	8/24/2018 5:52:07 PM	13:52:07	2.0.10.252	2	0	0	220331	7	220331	3999	-999999	396522	-3	380273	0	Run5Proc	2	1	2	RunList	1	LowLargeED	8000	0	242323	0	242323	0	242323	0	C5LowLargeEDBlockProc	n/a	n/a	n/a	n/a	n/a	n/a	n/a	n/a	n/a	n/a	n/a	n/a	1.0	1.0	1.0	Run5BlockList	1	n/a	n/a	n/a	n/a	n/a	n/a	n/a	n/a	n/a	n/a	n/a	n/a	n/a	n/a	n/a	n/a	n/a	n/a	n/a	n/a	n/a	n/a	n/a	n/a	n/a	n/a	n/a	n/a	n/a	n/a	n/a	n/a	n/a	n/a	n/a	n/a	n/a	n/a	n/a	n/a	n/a	n/a	1.0	1.0	1.0	n/a	n/a	n/a	n/a	n/a	n/a	n/a	n/a	n/a	n/a	n/a	n/a	n/a	n/a	n/a	n/a	n/a	n/a	n/a	n/a	n/a	n/a	n/a	n/a	n/a	n/a	n/a	n/a	n/a	n/a	n/a	n/a	n/a	n/a	n/a	n/a	n/a	n/a	n/a	n/a	n/a	n/a	n/a	n/a	n/a	C5_01.jpg	500	0	226829	-1	226829	0	TrialProc1	C5LowLargeEDBlockList	2500	0	224330	0	224330	-1	224330	2499	n/a	0	0	4.0
7	2.5	000_R01_VB_allProc	11	1	"<?xml version=""1.0""?>\n<Clock xmlns:dt=""urn:schemas-microsoft-com:datatypes""><Description dt:dt=""string"">E-Prime Primary Realtime Clock</Description><StartTime><Timestamp dt:dt=""int"">0</Timestamp><DateUtc dt:dt=""string"">2018-08-24T17:52:07Z</DateUtc></StartTime><FrequencyChanges><FrequencyChange><Frequency dt:dt=""r8"">3020390</Frequency><Timestamp dt:dt=""r8"">745344786578</Timestamp><Current dt:dt=""r8"">0</Current><DateUtc dt:dt=""string"">2018-08-24T17:52:07Z</DateUtc></FrequencyChange></FrequencyChanges></Clock>\n"	000_R01_VB_allProc-11-1	60.022	1.0.0.185	1	-1978907988	Professional	2.0.10.356	2.0.10.356	08-24-2018	8/24/2018 5:52:07 PM	13:52:07	2.0.10.252	2	0	0	220331	7	220331	3999	-999999	396522	-3	380273	0	Run5Proc	2	1	2	RunList	1	LowLargeED	8000	0	242323	0	242323	0	242323	0	C5LowLargeEDBlockProc	n/a	n/a	n/a	n/a	n/a	n/a	n/a	n/a	n/a	n/a	n/a	n/a	1.0	1.0	1.0	Run5BlockList	2	n/a	n/a	n/a	n/a	n/a	n/a	n/a	n/a	n/a	n/a	n/a	n/a	n/a	n/a	n/a	n/a	n/a	n/a	n/a	n/a	n/a	n/a	n/a	n/a	n/a	n/a	n/a	n/a	n/a	n/a	n/a	n/a	n/a	n/a	n/a	n/a	n/a	n/a	n/a	n/a	n/a	n/a	2.0	1.0	2.0	n/a	n/a	n/a	n/a	n/a	n/a	n/a	n/a	n/a	n/a	n/a	n/a	n/a	n/a	n/a	n/a	n/a	n/a	n/a	n/a	n/a	n/a	n/a	n/a	n/a	n/a	n/a	n/a	n/a	n/a	n/a	n/a	n/a	n/a	n/a	n/a	n/a	n/a	n/a	n/a	n/a	n/a	n/a	n/a	n/a	C5_02.jpg	500	0	229828	-1	229828	0	TrialProc1	C5LowLargeEDBlockList	2500	0	227329	0	227329	0	227329	2499	n/a	0	0	6.9990000000000006
10	2.5	000_R01_VB_allProc	11	1	"<?xml version=""1.0""?>\n<Clock xmlns:dt=""urn:schemas-microsoft-com:datatypes""><Description dt:dt=""string"">E-Prime Primary Realtime Clock</Description><StartTime><Timestamp dt:dt=""int"">0</Timestamp><DateUtc dt:dt=""string"">2018-08-24T17:52:07Z</DateUtc></StartTime><FrequencyChanges><FrequencyChange><Frequency dt:dt=""r8"">3020390</Frequency><Timestamp dt:dt=""r8"">745344786578</Timestamp><Current dt:dt=""r8"">0</Current><DateUtc dt:dt=""string"">2018-08-24T17:52:07Z</DateUtc></FrequencyChange></FrequencyChanges></Clock>\n"	000_R01_VB_allProc-11-1	60.022	1.0.0.185	1	-1978907988	Professional	2.0.10.356	2.0.10.356	08-24-2018	8/24/2018 5:52:07 PM	13:52:07	2.0.10.252	2	0	0	220331	7	220331	3999	-999999	396522	-3	380273	0	Run5Proc	2	1	2	RunList	1	LowLargeED	8000	0	242323	0	242323	0	242323	0	C5LowLargeEDBlockProc	n/a	n/a	n/a	n/a	n/a	n/a	n/a	n/a	n/a	n/a	n/a	n/a	1.0	1.0	1.0	Run5BlockList	3	n/a	n/a	n/a	n/a	n/a	n/a	n/a	n/a	n/a	n/a	n/a	n/a	n/a	n/a	n/a	n/a	n/a	n/a	n/a	n/a	n/a	n/a	n/a	n/a	n/a	n/a	n/a	n/a	n/a	n/a	n/a	n/a	n/a	n/a	n/a	n/a	n/a	n/a	n/a	n/a	n/a	n/a	3.0	1.0	3.0	n/a	n/a	n/a	n/a	n/a	n/a	n/a	n/a	n/a	n/a	n/a	n/a	n/a	n/a	n/a	n/a	n/a	n/a	n/a	n/a	n/a	n/a	n/a	n/a	n/a	n/a	n/a	n/a	n/a	n/a	n/a	n/a	n/a	n/a	n/a	n/a	n/a	n/a	n/a	n/a	n/a	n/a	n/a	n/a	n/a	C5_03.jpg	500	0	232827	-1	232827	0	TrialProc1	C5LowLargeEDBlockList	2500	0	230328	0	230328	0	230328	2499	n/a	0	0	9.998000000000001
13	2.5	000_R01_VB_allProc	11	1	"<?xml version=""1.0""?>\n<Clock xmlns:dt=""urn:schemas-microsoft-com:datatypes""><Description dt:dt=""string"">E-Prime Primary Realtime Clock</Description><StartTime><Timestamp dt:dt=""int"">0</Timestamp><DateUtc dt:dt=""string"">2018-08-24T17:52:07Z</DateUtc></StartTime><FrequencyChanges><FrequencyChange><Frequency dt:dt=""r8"">3020390</Frequency><Timestamp dt:dt=""r8"">745344786578</Timestamp><Current dt:dt=""r8"">0</Current><DateUtc dt:dt=""string"">2018-08-24T17:52:07Z</DateUtc></FrequencyChange></FrequencyChanges></Clock>\n"	000_R01_VB_allProc-11-1	60.022	1.0.0.185	1	-1978907988	Professional	2.0.10.356	2.0.10.356	08-24-2018	8/24/2018 5:52:07 PM	13:52:07	2.0.10.252	2	0	0	220331	7	220331	3999	-999999	396522	-3	380273	0	Run5Proc	2	1	2	RunList	1	LowLargeED	8000	0	242323	0	242323	0	242323	0	C5LowLargeEDBlockProc	n/a	n/a	n/a	n/a	n/a	n/a	n/a	n/a	n/a	n/a	n/a	n/a	1.0	1.0	1.0	Run5BlockList	4	n/a	n/a	n/a	n/a	n/a	n/a	n/a	n/a	n/a	n/a	n/a	n/a	n/a	n/a	n/a	n/a	n/a	n/a	n/a	n/a	n/a	n/a	n/a	n/a	n/a	n/a	n/a	n/a	n/a	n/a	n/a	n/a	n/a	n/a	n/a	n/a	n/a	n/a	n/a	n/a	n/a	n/a	4.0	1.0	4.0	n/a	n/a	n/a	n/a	n/a	n/a	n/a	n/a	n/a	n/a	n/a	n/a	n/a	n/a	n/a	n/a	n/a	n/a	n/a	n/a	n/a	n/a	n/a	n/a	n/a	n/a	n/a	n/a	n/a	n/a	n/a	n/a	n/a	n/a	n/a	n/a	n/a	n/a	n/a	n/a	n/a	n/a	n/a	n/a	n/a	C5_04.jpg	500	0	235826	-1	235826	0	TrialProc1	C5LowLargeEDBlockList	2500	0	233327	0	233327	0	233327	2499	n/a	0	0	12.997
16	2.5	000_R01_VB_allProc	11	1	"<?xml version=""1.0""?>\n<Clock xmlns:dt=""urn:schemas-microsoft-com:datatypes""><Description dt:dt=""string"">E-Prime Primary Realtime Clock</Description><StartTime><Timestamp dt:dt=""int"">0</Timestamp><DateUtc dt:dt=""string"">2018-08-24T17:52:07Z</DateUtc></StartTime><FrequencyChanges><FrequencyChange><Frequency dt:dt=""r8"">3020390</Frequency><Timestamp dt:dt=""r8"">745344786578</Timestamp><Current dt:dt=""r8"">0</Current><DateUtc dt:dt=""string"">2018-08-24T17:52:07Z</DateUtc></FrequencyChange></FrequencyChanges></Clock>\n"	000_R01_VB_allProc-11-1	60.022	1.0.0.185	1	-1978907988	Professional	2.0.10.356	2.0.10.356	08-24-2018	8/24/2018 5:52:07 PM	13:52:07	2.0.10.252	2	0	0	220331	7	220331	3999	-999999	396522	-3	380273	0	Run5Proc	2	1	2	RunList	1	LowLargeED	8000	0	242323	0	242323	0	242323	0	C5LowLargeEDBlockProc	n/a	n/a	n/a	n/a	n/a	n/a	n/a	n/a	n/a	n/a	n/a	n/a	1.0	1.0	1.0	Run5BlockList	5	n/a	n/a	n/a	n/a	n/a	n/a	n/a	n/a	n/a	n/a	n/a	n/a	n/a	n/a	n/a	n/a	n/a	n/a	n/a	n/a	n/a	n/a	n/a	n/a	n/a	n/a	n/a	n/a	n/a	n/a	n/a	n/a	n/a	n/a	n/a	n/a	n/a	n/a	n/a	n/a	n/a	n/a	5.0	1.0	5.0	n/a	n/a	n/a	n/a	n/a	n/a	n/a	n/a	n/a	n/a	n/a	n/a	n/a	n/a	n/a	n/a	n/a	n/a	n/a	n/a	n/a	n/a	n/a	n/a	n/a	n/a	n/a	n/a	n/a	n/a	n/a	n/a	n/a	n/a	n/a	n/a	n/a	n/a	n/a	n/a	n/a	n/a	n/a	n/a	n/a	C5_05.jpg	500	0	238825	0	238825	0	TrialProc1	C5LowLargeEDBlockList	2500	1	236326	1	236326	-1	236325	2500	n/a	0	0	15.995
19	2.5	000_R01_VB_allProc	11	1	"<?xml version=""1.0""?>\n<Clock xmlns:dt=""urn:schemas-microsoft-com:datatypes""><Description dt:dt=""string"">E-Prime Primary Realtime Clock</Description><StartTime><Timestamp dt:dt=""int"">0</Timestamp><DateUtc dt:dt=""string"">2018-08-24T17:52:07Z</DateUtc></StartTime><FrequencyChanges><FrequencyChange><Frequency dt:dt=""r8"">3020390</Frequency><Timestamp dt:dt=""r8"">745344786578</Timestamp><Current dt:dt=""r8"">0</Current><DateUtc dt:dt=""string"">2018-08-24T17:52:07Z</DateUtc></FrequencyChange></FrequencyChanges></Clock>\n"	000_R01_VB_allProc-11-1	60.022	1.0.0.185	1	-1978907988	Professional	2.0.10.356	2.0.10.356	08-24-2018	8/24/2018 5:52:07 PM	13:52:07	2.0.10.252	2	0	0	220331	7	220331	3999	-999999	396522	-3	380273	0	Run5Proc	2	1	2	RunList	1	LowLargeED	8000	0	242323	0	242323	0	242323	0	C5LowLargeEDBlockProc	n/a	n/a	n/a	n/a	n/a	n/a	n/a	n/a	n/a	n/a	n/a	n/a	1.0	1.0	1.0	Run5BlockList	6	n/a	n/a	n/a	n/a	n/a	n/a	n/a	n/a	n/a	n/a	n/a	n/a	n/a	n/a	n/a	n/a	n/a	n/a	n/a	n/a	n/a	n/a	n/a	n/a	n/a	n/a	n/a	n/a	n/a	n/a	n/a	n/a	n/a	n/a	n/a	n/a	n/a	n/a	n/a	n/a	n/a	n/a	6.0	1.0	6.0	n/a	n/a	n/a	n/a	n/a	n/a	n/a	n/a	n/a	n/a	n/a	n/a	n/a	n/a	n/a	n/a	n/a	n/a	n/a	n/a	n/a	n/a	n/a	n/a	n/a	n/a	n/a	n/a	n/a	n/a	n/a	n/a	n/a	n/a	n/a	n/a	n/a	n/a	n/a	n/a	n/a	n/a	n/a	n/a	n/a	C5_06.jpg	500	1	241824	-1	241823	0	TrialProc1	C5LowLargeEDBlockList	2500	0	239324	0	239324	-1	239324	2499	n/a	0	0	18.994
30	2.5	000_R01_VB_allProc	11	1	"<?xml version=""1.0""?>\n<Clock xmlns:dt=""urn:schemas-microsoft-com:datatypes""><Description dt:dt=""string"">E-Prime Primary Realtime Clock</Description><StartTime><Timestamp dt:dt=""int"">0</Timestamp><DateUtc dt:dt=""string"">2018-08-24T17:52:07Z</DateUtc></StartTime><FrequencyChanges><FrequencyChange><Frequency dt:dt=""r8"">3020390</Frequency><Timestamp dt:dt=""r8"">745344786578</Timestamp><Current dt:dt=""r8"">0</Current><DateUtc dt:dt=""string"">2018-08-24T17:52:07Z</DateUtc></FrequencyChange></FrequencyChanges></Clock>\n"	000_R01_VB_allProc-11-1	60.022	1.0.0.185	1	-1978907988	Professional	2.0.10.356	2.0.10.356	08-24-2018	8/24/2018 5:52:07 PM	13:52:07	2.0.10.252	2	0	0	220331	7	220331	3999	-999999	396522	-3	380273	0	Run5Proc	2	1	2	RunList	2	OfficeSmall	8000	0	268314	0	268314	0	268314	0	F5OfficeSmallBlockProc	n/a	n/a	n/a	n/a	n/a	n/a	n/a	n/a	n/a	n/a	n/a	n/a	2.0	1.0	2.0	Run5BlockList	1	n/a	n/a	n/a	n/a	n/a	n/a	n/a	n/a	n/a	n/a	n/a	n/a	n/a	n/a	n/a	n/a	n/a	n/a	n/a	n/a	n/a	n/a	n/a	n/a	n/a	n/a	n/a	n/a	n/a	n/a	n/a	n/a	n/a	n/a	n/a	n/a	n/a	n/a	n/a	n/a	n/a	n/a	n/a	n/a	n/a	n/a	n/a	n/a	n/a	n/a	n/a	n/a	n/a	n/a	n/a	n/a	n/a	n/a	n/a	n/a	n/a	n/a	n/a	n/a	n/a	n/a	n/a	n/a	n/a	n/a	n/a	n/a	n/a	n/a	n/a	n/a	n/a	n/a	n/a	n/a	n/a	n/a	n/a	n/a	n/a	n/a	n/a	1.0	1.0	1.0	F5_01.jpg	500	0	252819	-1	252819	0	TrialProc1	F5OfficeSmallBlockList	2500	0	250320	0	250320	-3	250320	2499	n/a	0	0	29.99
33	2.5	000_R01_VB_allProc	11	1	"<?xml version=""1.0""?>\n<Clock xmlns:dt=""urn:schemas-microsoft-com:datatypes""><Description dt:dt=""string"">E-Prime Primary Realtime Clock</Description><StartTime><Timestamp dt:dt=""int"">0</Timestamp><DateUtc dt:dt=""string"">2018-08-24T17:52:07Z</DateUtc></StartTime><FrequencyChanges><FrequencyChange><Frequency dt:dt=""r8"">3020390</Frequency><Timestamp dt:dt=""r8"">745344786578</Timestamp><Current dt:dt=""r8"">0</Current><DateUtc dt:dt=""string"">2018-08-24T17:52:07Z</DateUtc></FrequencyChange></FrequencyChanges></Clock>\n"	000_R01_VB_allProc-11-1	60.022	1.0.0.185	1	-1978907988	Professional	2.0.10.356	2.0.10.356	08-24-2018	8/24/2018 5:52:07 PM	13:52:07	2.0.10.252	2	0	0	220331	7	220331	3999	-999999	396522	-3	380273	0	Run5Proc	2	1	2	RunList	2	OfficeSmall	8000	0	268314	0	268314	0	268314	0	F5OfficeSmallBlockProc	n/a	n/a	n/a	n/a	n/a	n/a	n/a	n/a	n/a	n/a	n/a	n/a	2.0	1.0	2.0	Run5BlockList	2	n/a	n/a	n/a	n/a	n/a	n/a	n/a	n/a	n/a	n/a	n/a	n/a	n/a	n/a	n/a	n/a	n/a	n/a	n/a	n/a	n/a	n/a	n/a	n/a	n/a	n/a	n/a	n/a	n/a	n/a	n/a	n/a	n/a	n/a	n/a	n/a	n/a	n/a	n/a	n/a	n/a	n/a	n/a	n/a	n/a	n/a	n/a	n/a	n/a	n/a	n/a	n/a	n/a	n/a	n/a	n/a	n/a	n/a	n/a	n/a	n/a	n/a	n/a	n/a	n/a	n/a	n/a	n/a	n/a	n/a	n/a	n/a	n/a	n/a	n/a	n/a	n/a	n/a	n/a	n/a	n/a	n/a	n/a	n/a	n/a	n/a	n/a	2.0	1.0	2.0	F5_02.jpg	500	1	255819	-1	255818	0	TrialProc1	F5OfficeSmallBlockList	2500	0	253319	0	253319	0	253319	2499	n/a	0	0	32.989000000000004
36	2.5	000_R01_VB_allProc	11	1	"<?xml version=""1.0""?>\n<Clock xmlns:dt=""urn:schemas-microsoft-com:datatypes""><Description dt:dt=""string"">E-Prime Primary Realtime Clock</Description><StartTime><Timestamp dt:dt=""int"">0</Timestamp><DateUtc dt:dt=""string"">2018-08-24T17:52:07Z</DateUtc></StartTime><FrequencyChanges><FrequencyChange><Frequency dt:dt=""r8"">3020390</Frequency><Timestamp dt:dt=""r8"">745344786578</Timestamp><Current dt:dt=""r8"">0</Current><DateUtc dt:dt=""string"">2018-08-24T17:52:07Z</DateUtc></FrequencyChange></FrequencyChanges></Clock>\n"	000_R01_VB_allProc-11-1	60.022	1.0.0.185	1	-1978907988	Professional	2.0.10.356	2.0.10.356	08-24-2018	8/24/2018 5:52:07 PM	13:52:07	2.0.10.252	2	0	0	220331	7	220331	3999	-999999	396522	-3	380273	0	Run5Proc	2	1	2	RunList	2	OfficeSmall	8000	0	268314	0	268314	0	268314	0	F5OfficeSmallBlockProc	n/a	n/a	n/a	n/a	n/a	n/a	n/a	n/a	n/a	n/a	n/a	n/a	2.0	1.0	2.0	Run5BlockList	3	n/a	n/a	n/a	n/a	n/a	n/a	n/a	n/a	n/a	n/a	n/a	n/a	n/a	n/a	n/a	n/a	n/a	n/a	n/a	n/a	n/a	n/a	n/a	n/a	n/a	n/a	n/a	n/a	n/a	n/a	n/a	n/a	n/a	n/a	n/a	n/a	n/a	n/a	n/a	n/a	n/a	n/a	n/a	n/a	n/a	n/a	n/a	n/a	n/a	n/a	n/a	n/a	n/a	n/a	n/a	n/a	n/a	n/a	n/a	n/a	n/a	n/a	n/a	n/a	n/a	n/a	n/a	n/a	n/a	n/a	n/a	n/a	n/a	n/a	n/a	n/a	n/a	n/a	n/a	n/a	n/a	n/a	n/a	n/a	n/a	n/a	n/a	3.0	1.0	3.0	F5_03.jpg	500	0	258817	-1	258817	0	TrialProc1	F5OfficeSmallBlockList	2500	0	256318	0	256318	0	256318	2499	n/a	0	0	35.988
39	2.5	000_R01_VB_allProc	11	1	"<?xml version=""1.0""?>\n<Clock xmlns:dt=""urn:schemas-microsoft-com:datatypes""><Description dt:dt=""string"">E-Prime Primary Realtime Clock</Description><StartTime><Timestamp dt:dt=""int"">0</Timestamp><DateUtc dt:dt=""string"">2018-08-24T17:52:07Z</DateUtc></StartTime><FrequencyChanges><FrequencyChange><Frequency dt:dt=""r8"">3020390</Frequency><Timestamp dt:dt=""r8"">745344786578</Timestamp><Current dt:dt=""r8"">0</Current><DateUtc dt:dt=""string"">2018-08-24T17:52:07Z</DateUtc></FrequencyChange></FrequencyChanges></Clock>\n"	000_R01_VB_allProc-11-1	60.022	1.0.0.185	1	-1978907988	Professional	2.0.10.356	2.0.10.356	08-24-2018	8/24/2018 5:52:07 PM	13:52:07	2.0.10.252	2	0	0	220331	7	220331	3999	-999999	396522	-3	380273	0	Run5Proc	2	1	2	RunList	2	OfficeSmall	8000	0	268314	0	268314	0	268314	0	F5OfficeSmallBlockProc	n/a	n/a	n/a	n/a	n/a	n/a	n/a	n/a	n/a	n/a	n/a	n/a	2.0	1.0	2.0	Run5BlockList	4	n/a	n/a	n/a	n/a	n/a	n/a	n/a	n/a	n/a	n/a	n/a	n/a	n/a	n/a	n/a	n/a	n/a	n/a	n/a	n/a	n/a	n/a	n/a	n/a	n/a	n/a	n/a	n/a	n/a	n/a	n/a	n/a	n/a	n/a	n/a	n/a	n/a	n/a	n/a	n/a	n/a	n/a	n/a	n/a	n/a	n/a	n/a	n/a	n/a	n/a	n/a	n/a	n/a	n/a	n/a	n/a	n/a	n/a	n/a	n/a	n/a	n/a	n/a	n/a	n/a	n/a	n/a	n/a	n/a	n/a	n/a	n/a	n/a	n/a	n/a	n/a	n/a	n/a	n/a	n/a	n/a	n/a	n/a	n/a	n/a	n/a	n/a	4.0	1.0	4.0	F5_04.jpg	500	0	261816	-1	261816	0	TrialProc1	F5OfficeSmallBlockList	2500	0	259317	0	259317	0	259317	2499	n/a	0	0	38.987
42	2.5	000_R01_VB_allProc	11	1	"<?xml version=""1.0""?>\n<Clock xmlns:dt=""urn:schemas-microsoft-com:datatypes""><Description dt:dt=""string"">E-Prime Primary Realtime Clock</Description><StartTime><Timestamp dt:dt=""int"">0</Timestamp><DateUtc dt:dt=""string"">2018-08-24T17:52:07Z</DateUtc></StartTime><FrequencyChanges><FrequencyChange><Frequency dt:dt=""r8"">3020390</Frequency><Timestamp dt:dt=""r8"">745344786578</Timestamp><Current dt:dt=""r8"">0</Current><DateUtc dt:dt=""string"">2018-08-24T17:52:07Z</DateUtc></FrequencyChange></FrequencyChanges></Clock>\n"	000_R01_VB_allProc-11-1	60.022	1.0.0.185	1	-1978907988	Professional	2.0.10.356	2.0.10.356	08-24-2018	8/24/2018 5:52:07 PM	13:52:07	2.0.10.252	2	0	0	220331	7	220331	3999	-999999	396522	-3	380273	0	Run5Proc	2	1	2	RunList	2	OfficeSmall	8000	0	268314	0	268314	0	268314	0	F5OfficeSmallBlockProc	n/a	n/a	n/a	n/a	n/a	n/a	n/a	n/a	n/a	n/a	n/a	n/a	2.0	1.0	2.0	Run5BlockList	5	n/a	n/a	n/a	n/a	n/a	n/a	n/a	n/a	n/a	n/a	n/a	n/a	n/a	n/a	n/a	n/a	n/a	n/a	n/a	n/a	n/a	n/a	n/a	n/a	n/a	n/a	n/a	n/a	n/a	n/a	n/a	n/a	n/a	n/a	n/a	n/a	n/a	n/a	n/a	n/a	n/a	n/a	n/a	n/a	n/a	n/a	n/a	n/a	n/a	n/a	n/a	n/a	n/a	n/a	n/a	n/a	n/a	n/a	n/a	n/a	n/a	n/a	n/a	n/a	n/a	n/a	n/a	n/a	n/a	n/a	n/a	n/a	n/a	n/a	n/a	n/a	n/a	n/a	n/a	n/a	n/a	n/a	n/a	n/a	n/a	n/a	n/a	5.0	1.0	5.0	F5_05.jpg	500	0	264815	-1	264815	0	TrialProc1	F5OfficeSmallBlockList	2500	0	262316	0	262316	0	262316	2499	n/a	0	0	41.986
45	2.5	000_R01_VB_allProc	11	1	"<?xml version=""1.0""?>\n<Clock xmlns:dt=""urn:schemas-microsoft-com:datatypes""><Description dt:dt=""string"">E-Prime Primary Realtime Clock</Description><StartTime><Timestamp dt:dt=""int"">0</Timestamp><DateUtc dt:dt=""string"">2018-08-24T17:52:07Z</DateUtc></StartTime><FrequencyChanges><FrequencyChange><Frequency dt:dt=""r8"">3020390</Frequency><Timestamp dt:dt=""r8"">745344786578</Timestamp><Current dt:dt=""r8"">0</Current><DateUtc dt:dt=""string"">2018-08-24T17:52:07Z</DateUtc></FrequencyChange></FrequencyChanges></Clock>\n"	000_R01_VB_allProc-11-1	60.022	1.0.0.185	1	-1978907988	Professional	2.0.10.356	2.0.10.356	08-24-2018	8/24/2018 5:52:07 PM	13:52:07	2.0.10.252	2	0	0	220331	7	220331	3999	-999999	396522	-3	380273	0	Run5Proc	2	1	2	RunList	2	OfficeSmall	8000	0	268314	0	268314	0	268314	0	F5OfficeSmallBlockProc	n/a	n/a	n/a	n/a	n/a	n/a	n/a	n/a	n/a	n/a	n/a	n/a	2.0	1.0	2.0	Run5BlockList	6	n/a	n/a	n/a	n/a	n/a	n/a	n/a	n/a	n/a	n/a	n/a	n/a	n/a	n/a	n/a	n/a	n/a	n/a	n/a	n/a	n/a	n/a	n/a	n/a	n/a	n/a	n/a	n/a	n/a	n/a	n/a	n/a	n/a	n/a	n/a	n/a	n/a	n/a	n/a	n/a	n/a	n/a	n/a	n/a	n/a	n/a	n/a	n/a	n/a	n/a	n/a	n/a	n/a	n/a	n/a	n/a	n/a	n/a	n/a	n/a	n/a	n/a	n/a	n/a	n/a	n/a	n/a	n/a	n/a	n/a	n/a	n/a	n/a	n/a	n/a	n/a	n/a	n/a	n/a	n/a	n/a	n/a	n/a	n/a	n/a	n/a	n/a	6.0	1.0	6.0	F5_06.jpg	500	0	267814	-1	267814	0	TrialProc1	F5OfficeSmallBlockList	2500	0	265315	0	265315	0	265315	2499	n/a	0	0	44.985
56	2.5	000_R01_VB_allProc	11	1	"<?xml version=""1.0""?>\n<Clock xmlns:dt=""urn:schemas-microsoft-com:datatypes""><Description dt:dt=""string"">E-Prime Primary Realtime Clock</Description><StartTime><Timestamp dt:dt=""int"">0</Timestamp><DateUtc dt:dt=""string"">2018-08-24T17:52:07Z</DateUtc></StartTime><FrequencyChanges><FrequencyChange><Frequency dt:dt=""r8"">3020390</Frequency><Timestamp dt:dt=""r8"">745344786578</Timestamp><Current dt:dt=""r8"">0</Current><DateUtc dt:dt=""string"">2018-08-24T17:52:07Z</DateUtc></FrequencyChange></FrequencyChanges></Clock>\n"	000_R01_VB_allProc-11-1	60.022	1.0.0.185	1	-1978907988	Professional	2.0.10.356	2.0.10.356	08-24-2018	8/24/2018 5:52:07 PM	13:52:07	2.0.10.252	2	0	0	220331	7	220331	3999	-999999	396522	-3	380273	0	Run5Proc	2	1	2	RunList	3	HighSmallED	8000	0	294304	0	294304	0	294304	0	B5HighSmallEDBlockProc	n/a	n/a	n/a	n/a	n/a	n/a	n/a	n/a	n/a	n/a	n/a	n/a	3.0	1.0	3.0	Run5BlockList	1	n/a	n/a	n/a	n/a	n/a	n/a	n/a	n/a	n/a	n/a	n/a	n/a	n/a	n/a	n/a	n/a	n/a	n/a	n/a	n/a	n/a	n/a	n/a	n/a	n/a	n/a	n/a	1.0	1.0	1.0	n/a	n/a	n/a	n/a	n/a	n/a	n/a	n/a	n/a	n/a	n/a	n/a	n/a	n/a	n/a	n/a	n/a	n/a	n/a	n/a	n/a	n/a	n/a	n/a	n/a	n/a	n/a	n/a	n/a	n/a	n/a	n/a	n/a	n/a	n/a	n/a	n/a	n/a	n/a	n/a	n/a	n/a	n/a	n/a	n/a	n/a	n/a	n/a	n/a	n/a	n/a	n/a	n/a	n/a	n/a	n/a	n/a	n/a	n/a	n/a	B5_01.jpg	500	0	278810	-1	278810	0	TrialProc1	B5HighSmallEDBlockList	2500	0	276311	0	276311	-3	276311	2499	n/a	0	0	55.981
59	2.5	000_R01_VB_allProc	11	1	"<?xml version=""1.0""?>\n<Clock xmlns:dt=""urn:schemas-microsoft-com:datatypes""><Description dt:dt=""string"">E-Prime Primary Realtime Clock</Description><StartTime><Timestamp dt:dt=""int"">0</Timestamp><DateUtc dt:dt=""string"">2018-08-24T17:52:07Z</DateUtc></StartTime><FrequencyChanges><FrequencyChange><Frequency dt:dt=""r8"">3020390</Frequency><Timestamp dt:dt=""r8"">745344786578</Timestamp><Current dt:dt=""r8"">0</Current><DateUtc dt:dt=""string"">2018-08-24T17:52:07Z</DateUtc></FrequencyChange></FrequencyChanges></Clock>\n"	000_R01_VB_allProc-11-1	60.022	1.0.0.185	1	-1978907988	Professional	2.0.10.356	2.0.10.356	08-24-2018	8/24/2018 5:52:07 PM	13:52:07	2.0.10.252	2	0	0	220331	7	220331	3999	-999999	396522	-3	380273	0	Run5Proc	2	1	2	RunList	3	HighSmallED	8000	0	294304	0	294304	0	294304	0	B5HighSmallEDBlockProc	n/a	n/a	n/a	n/a	n/a	n/a	n/a	n/a	n/a	n/a	n/a	n/a	3.0	1.0	3.0	Run5BlockList	2	n/a	n/a	n/a	n/a	n/a	n/a	n/a	n/a	n/a	n/a	n/a	n/a	n/a	n/a	n/a	n/a	n/a	n/a	n/a	n/a	n/a	n/a	n/a	n/a	n/a	n/a	n/a	2.0	1.0	2.0	n/a	n/a	n/a	n/a	n/a	n/a	n/a	n/a	n/a	n/a	n/a	n/a	n/a	n/a	n/a	n/a	n/a	n/a	n/a	n/a	n/a	n/a	n/a	n/a	n/a	n/a	n/a	n/a	n/a	n/a	n/a	n/a	n/a	n/a	n/a	n/a	n/a	n/a	n/a	n/a	n/a	n/a	n/a	n/a	n/a	n/a	n/a	n/a	n/a	n/a	n/a	n/a	n/a	n/a	n/a	n/a	n/a	n/a	n/a	n/a	B5_02.jpg	500	0	281809	-1	281809	0	TrialProc1	B5HighSmallEDBlockList	2500	0	279310	0	279310	0	279310	2499	n/a	0	0	58.98
62	2.5	000_R01_VB_allProc	11	1	"<?xml version=""1.0""?>\n<Clock xmlns:dt=""urn:schemas-microsoft-com:datatypes""><Description dt:dt=""string"">E-Prime Primary Realtime Clock</Description><StartTime><Timestamp dt:dt=""int"">0</Timestamp><DateUtc dt:dt=""string"">2018-08-24T17:52:07Z</DateUtc></StartTime><FrequencyChanges><FrequencyChange><Frequency dt:dt=""r8"">3020390</Frequency><Timestamp dt:dt=""r8"">745344786578</Timestamp><Current dt:dt=""r8"">0</Current><DateUtc dt:dt=""string"">2018-08-24T17:52:07Z</DateUtc></FrequencyChange></FrequencyChanges></Clock>\n"	000_R01_VB_allProc-11-1	60.022	1.0.0.185	1	-1978907988	Professional	2.0.10.356	2.0.10.356	08-24-2018	8/24/2018 5:52:07 PM	13:52:07	2.0.10.252	2	0	0	220331	7	220331	3999	-999999	396522	-3	380273	0	Run5Proc	2	1	2	RunList	3	HighSmallED	8000	0	294304	0	294304	0	294304	0	B5HighSmallEDBlockProc	n/a	n/a	n/a	n/a	n/a	n/a	n/a	n/a	n/a	n/a	n/a	n/a	3.0	1.0	3.0	Run5BlockList	3	n/a	n/a	n/a	n/a	n/a	n/a	n/a	n/a	n/a	n/a	n/a	n/a	n/a	n/a	n/a	n/a	n/a	n/a	n/a	n/a	n/a	n/a	n/a	n/a	n/a	n/a	n/a	3.0	1.0	3.0	n/a	n/a	n/a	n/a	n/a	n/a	n/a	n/a	n/a	n/a	n/a	n/a	n/a	n/a	n/a	n/a	n/a	n/a	n/a	n/a	n/a	n/a	n/a	n/a	n/a	n/a	n/a	n/a	n/a	n/a	n/a	n/a	n/a	n/a	n/a	n/a	n/a	n/a	n/a	n/a	n/a	n/a	n/a	n/a	n/a	n/a	n/a	n/a	n/a	n/a	n/a	n/a	n/a	n/a	n/a	n/a	n/a	n/a	n/a	n/a	B5_03.jpg	500	0	284808	-1	284808	0	TrialProc1	B5HighSmallEDBlockList	2500	0	282309	0	282309	0	282309	2499	n/a	0	0	61.979
65	2.5	000_R01_VB_allProc	11	1	"<?xml version=""1.0""?>\n<Clock xmlns:dt=""urn:schemas-microsoft-com:datatypes""><Description dt:dt=""string"">E-Prime Primary Realtime Clock</Description><StartTime><Timestamp dt:dt=""int"">0</Timestamp><DateUtc dt:dt=""string"">2018-08-24T17:52:07Z</DateUtc></StartTime><FrequencyChanges><FrequencyChange><Frequency dt:dt=""r8"">3020390</Frequency><Timestamp dt:dt=""r8"">745344786578</Timestamp><Current dt:dt=""r8"">0</Current><DateUtc dt:dt=""string"">2018-08-24T17:52:07Z</DateUtc></FrequencyChange></FrequencyChanges></Clock>\n"	000_R01_VB_allProc-11-1	60.022	1.0.0.185	1	-1978907988	Professional	2.0.10.356	2.0.10.356	08-24-2018	8/24/2018 5:52:07 PM	13:52:07	2.0.10.252	2	0	0	220331	7	220331	3999	-999999	396522	-3	380273	0	Run5Proc	2	1	2	RunList	3	HighSmallED	8000	0	294304	0	294304	0	294304	0	B5HighSmallEDBlockProc	n/a	n/a	n/a	n/a	n/a	n/a	n/a	n/a	n/a	n/a	n/a	n/a	3.0	1.0	3.0	Run5BlockList	4	n/a	n/a	n/a	n/a	n/a	n/a	n/a	n/a	n/a	n/a	n/a	n/a	n/a	n/a	n/a	n/a	n/a	n/a	n/a	n/a	n/a	n/a	n/a	n/a	n/a	n/a	n/a	4.0	1.0	4.0	n/a	n/a	n/a	n/a	n/a	n/a	n/a	n/a	n/a	n/a	n/a	n/a	n/a	n/a	n/a	n/a	n/a	n/a	n/a	n/a	n/a	n/a	n/a	n/a	n/a	n/a	n/a	n/a	n/a	n/a	n/a	n/a	n/a	n/a	n/a	n/a	n/a	n/a	n/a	n/a	n/a	n/a	n/a	n/a	n/a	n/a	n/a	n/a	n/a	n/a	n/a	n/a	n/a	n/a	n/a	n/a	n/a	n/a	n/a	n/a	B5_04.jpg	500	0	287807	-1	287807	0	TrialProc1	B5HighSmallEDBlockList	2500	0	285308	0	285308	0	285308	2499	n/a	0	0	64.97800000000001
68	2.5	000_R01_VB_allProc	11	1	"<?xml version=""1.0""?>\n<Clock xmlns:dt=""urn:schemas-microsoft-com:datatypes""><Description dt:dt=""string"">E-Prime Primary Realtime Clock</Description><StartTime><Timestamp dt:dt=""int"">0</Timestamp><DateUtc dt:dt=""string"">2018-08-24T17:52:07Z</DateUtc></StartTime><FrequencyChanges><FrequencyChange><Frequency dt:dt=""r8"">3020390</Frequency><Timestamp dt:dt=""r8"">745344786578</Timestamp><Current dt:dt=""r8"">0</Current><DateUtc dt:dt=""string"">2018-08-24T17:52:07Z</DateUtc></FrequencyChange></FrequencyChanges></Clock>\n"	000_R01_VB_allProc-11-1	60.022	1.0.0.185	1	-1978907988	Professional	2.0.10.356	2.0.10.356	08-24-2018	8/24/2018 5:52:07 PM	13:52:07	2.0.10.252	2	0	0	220331	7	220331	3999	-999999	396522	-3	380273	0	Run5Proc	2	1	2	RunList	3	HighSmallED	8000	0	294304	0	294304	0	294304	0	B5HighSmallEDBlockProc	n/a	n/a	n/a	n/a	n/a	n/a	n/a	n/a	n/a	n/a	n/a	n/a	3.0	1.0	3.0	Run5BlockList	5	n/a	n/a	n/a	n/a	n/a	n/a	n/a	n/a	n/a	n/a	n/a	n/a	n/a	n/a	n/a	n/a	n/a	n/a	n/a	n/a	n/a	n/a	n/a	n/a	n/a	n/a	n/a	5.0	1.0	5.0	n/a	n/a	n/a	n/a	n/a	n/a	n/a	n/a	n/a	n/a	n/a	n/a	n/a	n/a	n/a	n/a	n/a	n/a	n/a	n/a	n/a	n/a	n/a	n/a	n/a	n/a	n/a	n/a	n/a	n/a	n/a	n/a	n/a	n/a	n/a	n/a	n/a	n/a	n/a	n/a	n/a	n/a	n/a	n/a	n/a	n/a	n/a	n/a	n/a	n/a	n/a	n/a	n/a	n/a	n/a	n/a	n/a	n/a	n/a	n/a	B5_05.jpg	500	0	290806	0	290806	0	TrialProc1	B5HighSmallEDBlockList	2500	1	288307	1	288307	-1	288306	2500	n/a	0	0	67.976
71	2.5	000_R01_VB_allProc	11	1	"<?xml version=""1.0""?>\n<Clock xmlns:dt=""urn:schemas-microsoft-com:datatypes""><Description dt:dt=""string"">E-Prime Primary Realtime Clock</Description><StartTime><Timestamp dt:dt=""int"">0</Timestamp><DateUtc dt:dt=""string"">2018-08-24T17:52:07Z</DateUtc></StartTime><FrequencyChanges><FrequencyChange><Frequency dt:dt=""r8"">3020390</Frequency><Timestamp dt:dt=""r8"">745344786578</Timestamp><Current dt:dt=""r8"">0</Current><DateUtc dt:dt=""string"">2018-08-24T17:52:07Z</DateUtc></FrequencyChange></FrequencyChanges></Clock>\n"	000_R01_VB_allProc-11-1	60.022	1.0.0.185	1	-1978907988	Professional	2.0.10.356	2.0.10.356	08-24-2018	8/24/2018 5:52:07 PM	13:52:07	2.0.10.252	2	0	0	220331	7	220331	3999	-999999	396522	-3	380273	0	Run5Proc	2	1	2	RunList	3	HighSmallED	8000	0	294304	0	294304	0	294304	0	B5HighSmallEDBlockProc	n/a	n/a	n/a	n/a	n/a	n/a	n/a	n/a	n/a	n/a	n/a	n/a	3.0	1.0	3.0	Run5BlockList	6	n/a	n/a	n/a	n/a	n/a	n/a	n/a	n/a	n/a	n/a	n/a	n/a	n/a	n/a	n/a	n/a	n/a	n/a	n/a	n/a	n/a	n/a	n/a	n/a	n/a	n/a	n/a	6.0	1.0	6.0	n/a	n/a	n/a	n/a	n/a	n/a	n/a	n/a	n/a	n/a	n/a	n/a	n/a	n/a	n/a	n/a	n/a	n/a	n/a	n/a	n/a	n/a	n/a	n/a	n/a	n/a	n/a	n/a	n/a	n/a	n/a	n/a	n/a	n/a	n/a	n/a	n/a	n/a	n/a	n/a	n/a	n/a	n/a	n/a	n/a	n/a	n/a	n/a	n/a	n/a	n/a	n/a	n/a	n/a	n/a	n/a	n/a	n/a	n/a	n/a	B5_06.jpg	500	0	293805	-1	293804	0	TrialProc1	B5HighSmallEDBlockList	2500	0	291305	0	291305	-1	291305	2499	n/a	0	0	70.975
82	2.5	000_R01_VB_allProc	11	1	"<?xml version=""1.0""?>\n<Clock xmlns:dt=""urn:schemas-microsoft-com:datatypes""><Description dt:dt=""string"">E-Prime Primary Realtime Clock</Description><StartTime><Timestamp dt:dt=""int"">0</Timestamp><DateUtc dt:dt=""string"">2018-08-24T17:52:07Z</DateUtc></StartTime><FrequencyChanges><FrequencyChange><Frequency dt:dt=""r8"">3020390</Frequency><Timestamp dt:dt=""r8"">745344786578</Timestamp><Current dt:dt=""r8"">0</Current><DateUtc dt:dt=""string"">2018-08-24T17:52:07Z</DateUtc></FrequencyChange></FrequencyChanges></Clock>\n"	000_R01_VB_allProc-11-1	60.022	1.0.0.185	1	-1978907988	Professional	2.0.10.356	2.0.10.356	08-24-2018	8/24/2018 5:52:07 PM	13:52:07	2.0.10.252	2	0	0	220331	7	220331	3999	-999999	396522	-3	380273	0	Run5Proc	2	1	2	RunList	4	OfficeLarge	8000	0	320295	0	320295	0	320295	0	E5OfficeLargeBlockProc	n/a	n/a	n/a	n/a	n/a	n/a	n/a	n/a	n/a	n/a	n/a	n/a	4.0	1.0	4.0	Run5BlockList	1	n/a	n/a	n/a	n/a	n/a	n/a	n/a	n/a	n/a	n/a	n/a	n/a	n/a	n/a	n/a	n/a	n/a	n/a	n/a	n/a	n/a	n/a	n/a	n/a	n/a	n/a	n/a	n/a	n/a	n/a	n/a	n/a	n/a	n/a	n/a	n/a	n/a	n/a	n/a	n/a	n/a	n/a	n/a	n/a	n/a	n/a	n/a	n/a	n/a	n/a	n/a	n/a	n/a	n/a	n/a	n/a	n/a	n/a	n/a	n/a	n/a	n/a	n/a	n/a	n/a	n/a	n/a	n/a	n/a	n/a	n/a	n/a	1.0	1.0	1.0	n/a	n/a	n/a	n/a	n/a	n/a	n/a	n/a	n/a	n/a	n/a	n/a	n/a	n/a	n/a	E5_01.jpg	500	0	304800	-1	304800	0	TrialProc1	E5OfficeLargeBlockList	2500	0	302301	0	302301	-3	302301	2499	n/a	0	0	81.971
85	2.5	000_R01_VB_allProc	11	1	"<?xml version=""1.0""?>\n<Clock xmlns:dt=""urn:schemas-microsoft-com:datatypes""><Description dt:dt=""string"">E-Prime Primary Realtime Clock</Description><StartTime><Timestamp dt:dt=""int"">0</Timestamp><DateUtc dt:dt=""string"">2018-08-24T17:52:07Z</DateUtc></StartTime><FrequencyChanges><FrequencyChange><Frequency dt:dt=""r8"">3020390</Frequency><Timestamp dt:dt=""r8"">745344786578</Timestamp><Current dt:dt=""r8"">0</Current><DateUtc dt:dt=""string"">2018-08-24T17:52:07Z</DateUtc></FrequencyChange></FrequencyChanges></Clock>\n"	000_R01_VB_allProc-11-1	60.022	1.0.0.185	1	-1978907988	Professional	2.0.10.356	2.0.10.356	08-24-2018	8/24/2018 5:52:07 PM	13:52:07	2.0.10.252	2	0	0	220331	7	220331	3999	-999999	396522	-3	380273	0	Run5Proc	2	1	2	RunList	4	OfficeLarge	8000	0	320295	0	320295	0	320295	0	E5OfficeLargeBlockProc	n/a	n/a	n/a	n/a	n/a	n/a	n/a	n/a	n/a	n/a	n/a	n/a	4.0	1.0	4.0	Run5BlockList	2	n/a	n/a	n/a	n/a	n/a	n/a	n/a	n/a	n/a	n/a	n/a	n/a	n/a	n/a	n/a	n/a	n/a	n/a	n/a	n/a	n/a	n/a	n/a	n/a	n/a	n/a	n/a	n/a	n/a	n/a	n/a	n/a	n/a	n/a	n/a	n/a	n/a	n/a	n/a	n/a	n/a	n/a	n/a	n/a	n/a	n/a	n/a	n/a	n/a	n/a	n/a	n/a	n/a	n/a	n/a	n/a	n/a	n/a	n/a	n/a	n/a	n/a	n/a	n/a	n/a	n/a	n/a	n/a	n/a	n/a	n/a	n/a	2.0	1.0	2.0	n/a	n/a	n/a	n/a	n/a	n/a	n/a	n/a	n/a	n/a	n/a	n/a	n/a	n/a	n/a	E5_02.jpg	500	0	307799	-1	307799	0	TrialProc1	E5OfficeLargeBlockList	2500	0	305300	0	305300	0	305300	2499	n/a	0	0	84.97
88	2.5	000_R01_VB_allProc	11	1	"<?xml version=""1.0""?>\n<Clock xmlns:dt=""urn:schemas-microsoft-com:datatypes""><Description dt:dt=""string"">E-Prime Primary Realtime Clock</Description><StartTime><Timestamp dt:dt=""int"">0</Timestamp><DateUtc dt:dt=""string"">2018-08-24T17:52:07Z</DateUtc></StartTime><FrequencyChanges><FrequencyChange><Frequency dt:dt=""r8"">3020390</Frequency><Timestamp dt:dt=""r8"">745344786578</Timestamp><Current dt:dt=""r8"">0</Current><DateUtc dt:dt=""string"">2018-08-24T17:52:07Z</DateUtc></FrequencyChange></FrequencyChanges></Clock>\n"	000_R01_VB_allProc-11-1	60.022	1.0.0.185	1	-1978907988	Professional	2.0.10.356	2.0.10.356	08-24-2018	8/24/2018 5:52:07 PM	13:52:07	2.0.10.252	2	0	0	220331	7	220331	3999	-999999	396522	-3	380273	0	Run5Proc	2	1	2	RunList	4	OfficeLarge	8000	0	320295	0	320295	0	320295	0	E5OfficeLargeBlockProc	n/a	n/a	n/a	n/a	n/a	n/a	n/a	n/a	n/a	n/a	n/a	n/a	4.0	1.0	4.0	Run5BlockList	3	n/a	n/a	n/a	n/a	n/a	n/a	n/a	n/a	n/a	n/a	n/a	n/a	n/a	n/a	n/a	n/a	n/a	n/a	n/a	n/a	n/a	n/a	n/a	n/a	n/a	n/a	n/a	n/a	n/a	n/a	n/a	n/a	n/a	n/a	n/a	n/a	n/a	n/a	n/a	n/a	n/a	n/a	n/a	n/a	n/a	n/a	n/a	n/a	n/a	n/a	n/a	n/a	n/a	n/a	n/a	n/a	n/a	n/a	n/a	n/a	n/a	n/a	n/a	n/a	n/a	n/a	n/a	n/a	n/a	n/a	n/a	n/a	3.0	1.0	3.0	n/a	n/a	n/a	n/a	n/a	n/a	n/a	n/a	n/a	n/a	n/a	n/a	n/a	n/a	n/a	E5_03.jpg	500	0	310798	-1	310798	0	TrialProc1	E5OfficeLargeBlockList	2500	0	308299	0	308299	0	308299	2499	n/a	0	0	87.969
91	2.5	000_R01_VB_allProc	11	1	"<?xml version=""1.0""?>\n<Clock xmlns:dt=""urn:schemas-microsoft-com:datatypes""><Description dt:dt=""string"">E-Prime Primary Realtime Clock</Description><StartTime><Timestamp dt:dt=""int"">0</Timestamp><DateUtc dt:dt=""string"">2018-08-24T17:52:07Z</DateUtc></StartTime><FrequencyChanges><FrequencyChange><Frequency dt:dt=""r8"">3020390</Frequency><Timestamp dt:dt=""r8"">745344786578</Timestamp><Current dt:dt=""r8"">0</Current><DateUtc dt:dt=""string"">2018-08-24T17:52:07Z</DateUtc></FrequencyChange></FrequencyChanges></Clock>\n"	000_R01_VB_allProc-11-1	60.022	1.0.0.185	1	-1978907988	Professional	2.0.10.356	2.0.10.356	08-24-2018	8/24/2018 5:52:07 PM	13:52:07	2.0.10.252	2	0	0	220331	7	220331	3999	-999999	396522	-3	380273	0	Run5Proc	2	1	2	RunList	4	OfficeLarge	8000	0	320295	0	320295	0	320295	0	E5OfficeLargeBlockProc	n/a	n/a	n/a	n/a	n/a	n/a	n/a	n/a	n/a	n/a	n/a	n/a	4.0	1.0	4.0	Run5BlockList	4	n/a	n/a	n/a	n/a	n/a	n/a	n/a	n/a	n/a	n/a	n/a	n/a	n/a	n/a	n/a	n/a	n/a	n/a	n/a	n/a	n/a	n/a	n/a	n/a	n/a	n/a	n/a	n/a	n/a	n/a	n/a	n/a	n/a	n/a	n/a	n/a	n/a	n/a	n/a	n/a	n/a	n/a	n/a	n/a	n/a	n/a	n/a	n/a	n/a	n/a	n/a	n/a	n/a	n/a	n/a	n/a	n/a	n/a	n/a	n/a	n/a	n/a	n/a	n/a	n/a	n/a	n/a	n/a	n/a	n/a	n/a	n/a	4.0	1.0	4.0	n/a	n/a	n/a	n/a	n/a	n/a	n/a	n/a	n/a	n/a	n/a	n/a	n/a	n/a	n/a	E5_04.jpg	500	0	313797	-1	313797	0	TrialProc1	E5OfficeLargeBlockList	2500	0	311298	0	311298	0	311298	2499	n/a	0	0	90.968
94	2.5	000_R01_VB_allProc	11	1	"<?xml version=""1.0""?>\n<Clock xmlns:dt=""urn:schemas-microsoft-com:datatypes""><Description dt:dt=""string"">E-Prime Primary Realtime Clock</Description><StartTime><Timestamp dt:dt=""int"">0</Timestamp><DateUtc dt:dt=""string"">2018-08-24T17:52:07Z</DateUtc></StartTime><FrequencyChanges><FrequencyChange><Frequency dt:dt=""r8"">3020390</Frequency><Timestamp dt:dt=""r8"">745344786578</Timestamp><Current dt:dt=""r8"">0</Current><DateUtc dt:dt=""string"">2018-08-24T17:52:07Z</DateUtc></FrequencyChange></FrequencyChanges></Clock>\n"	000_R01_VB_allProc-11-1	60.022	1.0.0.185	1	-1978907988	Professional	2.0.10.356	2.0.10.356	08-24-2018	8/24/2018 5:52:07 PM	13:52:07	2.0.10.252	2	0	0	220331	7	220331	3999	-999999	396522	-3	380273	0	Run5Proc	2	1	2	RunList	4	OfficeLarge	8000	0	320295	0	320295	0	320295	0	E5OfficeLargeBlockProc	n/a	n/a	n/a	n/a	n/a	n/a	n/a	n/a	n/a	n/a	n/a	n/a	4.0	1.0	4.0	Run5BlockList	5	n/a	n/a	n/a	n/a	n/a	n/a	n/a	n/a	n/a	n/a	n/a	n/a	n/a	n/a	n/a	n/a	n/a	n/a	n/a	n/a	n/a	n/a	n/a	n/a	n/a	n/a	n/a	n/a	n/a	n/a	n/a	n/a	n/a	n/a	n/a	n/a	n/a	n/a	n/a	n/a	n/a	n/a	n/a	n/a	n/a	n/a	n/a	n/a	n/a	n/a	n/a	n/a	n/a	n/a	n/a	n/a	n/a	n/a	n/a	n/a	n/a	n/a	n/a	n/a	n/a	n/a	n/a	n/a	n/a	n/a	n/a	n/a	5.0	1.0	5.0	n/a	n/a	n/a	n/a	n/a	n/a	n/a	n/a	n/a	n/a	n/a	n/a	n/a	n/a	n/a	E5_05.jpg	500	0	316796	-1	316796	0	TrialProc1	E5OfficeLargeBlockList	2500	0	314297	0	314297	0	314297	2499	n/a	0	0	93.967
97	2.5	000_R01_VB_allProc	11	1	"<?xml version=""1.0""?>\n<Clock xmlns:dt=""urn:schemas-microsoft-com:datatypes""><Description dt:dt=""string"">E-Prime Primary Realtime Clock</Description><StartTime><Timestamp dt:dt=""int"">0</Timestamp><DateUtc dt:dt=""string"">2018-08-24T17:52:07Z</DateUtc></StartTime><FrequencyChanges><FrequencyChange><Frequency dt:dt=""r8"">3020390</Frequency><Timestamp dt:dt=""r8"">745344786578</Timestamp><Current dt:dt=""r8"">0</Current><DateUtc dt:dt=""string"">2018-08-24T17:52:07Z</DateUtc></FrequencyChange></FrequencyChanges></Clock>\n"	000_R01_VB_allProc-11-1	60.022	1.0.0.185	1	-1978907988	Professional	2.0.10.356	2.0.10.356	08-24-2018	8/24/2018 5:52:07 PM	13:52:07	2.0.10.252	2	0	0	220331	7	220331	3999	-999999	396522	-3	380273	0	Run5Proc	2	1	2	RunList	4	OfficeLarge	8000	0	320295	0	320295	0	320295	0	E5OfficeLargeBlockProc	n/a	n/a	n/a	n/a	n/a	n/a	n/a	n/a	n/a	n/a	n/a	n/a	4.0	1.0	4.0	Run5BlockList	6	n/a	n/a	n/a	n/a	n/a	n/a	n/a	n/a	n/a	n/a	n/a	n/a	n/a	n/a	n/a	n/a	n/a	n/a	n/a	n/a	n/a	n/a	n/a	n/a	n/a	n/a	n/a	n/a	n/a	n/a	n/a	n/a	n/a	n/a	n/a	n/a	n/a	n/a	n/a	n/a	n/a	n/a	n/a	n/a	n/a	n/a	n/a	n/a	n/a	n/a	n/a	n/a	n/a	n/a	n/a	n/a	n/a	n/a	n/a	n/a	n/a	n/a	n/a	n/a	n/a	n/a	n/a	n/a	n/a	n/a	n/a	n/a	6.0	1.0	6.0	n/a	n/a	n/a	n/a	n/a	n/a	n/a	n/a	n/a	n/a	n/a	n/a	n/a	n/a	n/a	E5_06.jpg	500	0	319795	-1	319795	0	TrialProc1	E5OfficeLargeBlockList	2500	0	317296	0	317296	0	317296	2499	n/a	0	0	96.966
108	2.5	000_R01_VB_allProc	11	1	"<?xml version=""1.0""?>\n<Clock xmlns:dt=""urn:schemas-microsoft-com:datatypes""><Description dt:dt=""string"">E-Prime Primary Realtime Clock</Description><StartTime><Timestamp dt:dt=""int"">0</Timestamp><DateUtc dt:dt=""string"">2018-08-24T17:52:07Z</DateUtc></StartTime><FrequencyChanges><FrequencyChange><Frequency dt:dt=""r8"">3020390</Frequency><Timestamp dt:dt=""r8"">745344786578</Timestamp><Current dt:dt=""r8"">0</Current><DateUtc dt:dt=""string"">2018-08-24T17:52:07Z</DateUtc></FrequencyChange></FrequencyChanges></Clock>\n"	000_R01_VB_allProc-11-1	60.022	1.0.0.185	1	-1978907988	Professional	2.0.10.356	2.0.10.356	08-24-2018	8/24/2018 5:52:07 PM	13:52:07	2.0.10.252	2	0	0	220331	7	220331	3999	-999999	396522	-3	380273	0	Run5Proc	2	1	2	RunList	5	HighLargeED	8000	0	346285	0	346285	0	346285	0	A5HighLargeEDBlockProc	n/a	n/a	n/a	n/a	n/a	n/a	n/a	n/a	n/a	n/a	n/a	n/a	5.0	1.0	5.0	Run5BlockList	1	n/a	n/a	n/a	n/a	n/a	n/a	n/a	n/a	n/a	n/a	n/a	n/a	1.0	1.0	1.0	n/a	n/a	n/a	n/a	n/a	n/a	n/a	n/a	n/a	n/a	n/a	n/a	n/a	n/a	n/a	n/a	n/a	n/a	n/a	n/a	n/a	n/a	n/a	n/a	n/a	n/a	n/a	n/a	n/a	n/a	n/a	n/a	n/a	n/a	n/a	n/a	n/a	n/a	n/a	n/a	n/a	n/a	n/a	n/a	n/a	n/a	n/a	n/a	n/a	n/a	n/a	n/a	n/a	n/a	n/a	n/a	n/a	n/a	n/a	n/a	n/a	n/a	n/a	n/a	n/a	n/a	n/a	n/a	n/a	n/a	n/a	n/a	n/a	n/a	n/a	A5_01.jpg	500	0	330791	-1	330791	0	TrialProc1	A5HighLargeEDBlockList	2500	0	328292	0	328292	-3	328292	2499	n/a	0	0	107.962
111	2.5	000_R01_VB_allProc	11	1	"<?xml version=""1.0""?>\n<Clock xmlns:dt=""urn:schemas-microsoft-com:datatypes""><Description dt:dt=""string"">E-Prime Primary Realtime Clock</Description><StartTime><Timestamp dt:dt=""int"">0</Timestamp><DateUtc dt:dt=""string"">2018-08-24T17:52:07Z</DateUtc></StartTime><FrequencyChanges><FrequencyChange><Frequency dt:dt=""r8"">3020390</Frequency><Timestamp dt:dt=""r8"">745344786578</Timestamp><Current dt:dt=""r8"">0</Current><DateUtc dt:dt=""string"">2018-08-24T17:52:07Z</DateUtc></FrequencyChange></FrequencyChanges></Clock>\n"	000_R01_VB_allProc-11-1	60.022	1.0.0.185	1	-1978907988	Professional	2.0.10.356	2.0.10.356	08-24-2018	8/24/2018 5:52:07 PM	13:52:07	2.0.10.252	2	0	0	220331	7	220331	3999	-999999	396522	-3	380273	0	Run5Proc	2	1	2	RunList	5	HighLargeED	8000	0	346285	0	346285	0	346285	0	A5HighLargeEDBlockProc	n/a	n/a	n/a	n/a	n/a	n/a	n/a	n/a	n/a	n/a	n/a	n/a	5.0	1.0	5.0	Run5BlockList	2	n/a	n/a	n/a	n/a	n/a	n/a	n/a	n/a	n/a	n/a	n/a	n/a	2.0	1.0	2.0	n/a	n/a	n/a	n/a	n/a	n/a	n/a	n/a	n/a	n/a	n/a	n/a	n/a	n/a	n/a	n/a	n/a	n/a	n/a	n/a	n/a	n/a	n/a	n/a	n/a	n/a	n/a	n/a	n/a	n/a	n/a	n/a	n/a	n/a	n/a	n/a	n/a	n/a	n/a	n/a	n/a	n/a	n/a	n/a	n/a	n/a	n/a	n/a	n/a	n/a	n/a	n/a	n/a	n/a	n/a	n/a	n/a	n/a	n/a	n/a	n/a	n/a	n/a	n/a	n/a	n/a	n/a	n/a	n/a	n/a	n/a	n/a	n/a	n/a	n/a	A5_02.jpg	500	0	333790	-1	333790	0	TrialProc1	A5HighLargeEDBlockList	2500	0	331291	0	331291	0	331291	2499	n/a	0	0	110.961
114	2.5	000_R01_VB_allProc	11	1	"<?xml version=""1.0""?>\n<Clock xmlns:dt=""urn:schemas-microsoft-com:datatypes""><Description dt:dt=""string"">E-Prime Primary Realtime Clock</Description><StartTime><Timestamp dt:dt=""int"">0</Timestamp><DateUtc dt:dt=""string"">2018-08-24T17:52:07Z</DateUtc></StartTime><FrequencyChanges><FrequencyChange><Frequency dt:dt=""r8"">3020390</Frequency><Timestamp dt:dt=""r8"">745344786578</Timestamp><Current dt:dt=""r8"">0</Current><DateUtc dt:dt=""string"">2018-08-24T17:52:07Z</DateUtc></FrequencyChange></FrequencyChanges></Clock>\n"	000_R01_VB_allProc-11-1	60.022	1.0.0.185	1	-1978907988	Professional	2.0.10.356	2.0.10.356	08-24-2018	8/24/2018 5:52:07 PM	13:52:07	2.0.10.252	2	0	0	220331	7	220331	3999	-999999	396522	-3	380273	0	Run5Proc	2	1	2	RunList	5	HighLargeED	8000	0	346285	0	346285	0	346285	0	A5HighLargeEDBlockProc	n/a	n/a	n/a	n/a	n/a	n/a	n/a	n/a	n/a	n/a	n/a	n/a	5.0	1.0	5.0	Run5BlockList	3	n/a	n/a	n/a	n/a	n/a	n/a	n/a	n/a	n/a	n/a	n/a	n/a	3.0	1.0	3.0	n/a	n/a	n/a	n/a	n/a	n/a	n/a	n/a	n/a	n/a	n/a	n/a	n/a	n/a	n/a	n/a	n/a	n/a	n/a	n/a	n/a	n/a	n/a	n/a	n/a	n/a	n/a	n/a	n/a	n/a	n/a	n/a	n/a	n/a	n/a	n/a	n/a	n/a	n/a	n/a	n/a	n/a	n/a	n/a	n/a	n/a	n/a	n/a	n/a	n/a	n/a	n/a	n/a	n/a	n/a	n/a	n/a	n/a	n/a	n/a	n/a	n/a	n/a	n/a	n/a	n/a	n/a	n/a	n/a	n/a	n/a	n/a	n/a	n/a	n/a	A5_03.jpg	500	0	336789	-1	336789	0	TrialProc1	A5HighLargeEDBlockList	2500	0	334290	0	334290	0	334290	2499	n/a	0	0	113.96
117	2.5	000_R01_VB_allProc	11	1	"<?xml version=""1.0""?>\n<Clock xmlns:dt=""urn:schemas-microsoft-com:datatypes""><Description dt:dt=""string"">E-Prime Primary Realtime Clock</Description><StartTime><Timestamp dt:dt=""int"">0</Timestamp><DateUtc dt:dt=""string"">2018-08-24T17:52:07Z</DateUtc></StartTime><FrequencyChanges><FrequencyChange><Frequency dt:dt=""r8"">3020390</Frequency><Timestamp dt:dt=""r8"">745344786578</Timestamp><Current dt:dt=""r8"">0</Current><DateUtc dt:dt=""string"">2018-08-24T17:52:07Z</DateUtc></FrequencyChange></FrequencyChanges></Clock>\n"	000_R01_VB_allProc-11-1	60.022	1.0.0.185	1	-1978907988	Professional	2.0.10.356	2.0.10.356	08-24-2018	8/24/2018 5:52:07 PM	13:52:07	2.0.10.252	2	0	0	220331	7	220331	3999	-999999	396522	-3	380273	0	Run5Proc	2	1	2	RunList	5	HighLargeED	8000	0	346285	0	346285	0	346285	0	A5HighLargeEDBlockProc	n/a	n/a	n/a	n/a	n/a	n/a	n/a	n/a	n/a	n/a	n/a	n/a	5.0	1.0	5.0	Run5BlockList	4	n/a	n/a	n/a	n/a	n/a	n/a	n/a	n/a	n/a	n/a	n/a	n/a	4.0	1.0	4.0	n/a	n/a	n/a	n/a	n/a	n/a	n/a	n/a	n/a	n/a	n/a	n/a	n/a	n/a	n/a	n/a	n/a	n/a	n/a	n/a	n/a	n/a	n/a	n/a	n/a	n/a	n/a	n/a	n/a	n/a	n/a	n/a	n/a	n/a	n/a	n/a	n/a	n/a	n/a	n/a	n/a	n/a	n/a	n/a	n/a	n/a	n/a	n/a	n/a	n/a	n/a	n/a	n/a	n/a	n/a	n/a	n/a	n/a	n/a	n/a	n/a	n/a	n/a	n/a	n/a	n/a	n/a	n/a	n/a	n/a	n/a	n/a	n/a	n/a	n/a	A5_04.jpg	500	0	339788	-1	339788	0	TrialProc1	A5HighLargeEDBlockList	2500	0	337289	0	337289	0	337289	2499	n/a	0	0	116.959
120	2.5	000_R01_VB_allProc	11	1	"<?xml version=""1.0""?>\n<Clock xmlns:dt=""urn:schemas-microsoft-com:datatypes""><Description dt:dt=""string"">E-Prime Primary Realtime Clock</Description><StartTime><Timestamp dt:dt=""int"">0</Timestamp><DateUtc dt:dt=""string"">2018-08-24T17:52:07Z</DateUtc></StartTime><FrequencyChanges><FrequencyChange><Frequency dt:dt=""r8"">3020390</Frequency><Timestamp dt:dt=""r8"">745344786578</Timestamp><Current dt:dt=""r8"">0</Current><DateUtc dt:dt=""string"">2018-08-24T17:52:07Z</DateUtc></FrequencyChange></FrequencyChanges></Clock>\n"	000_R01_VB_allProc-11-1	60.022	1.0.0.185	1	-1978907988	Professional	2.0.10.356	2.0.10.356	08-24-2018	8/24/2018 5:52:07 PM	13:52:07	2.0.10.252	2	0	0	220331	7	220331	3999	-999999	396522	-3	380273	0	Run5Proc	2	1	2	RunList	5	HighLargeED	8000	0	346285	0	346285	0	346285	0	A5HighLargeEDBlockProc	n/a	n/a	n/a	n/a	n/a	n/a	n/a	n/a	n/a	n/a	n/a	n/a	5.0	1.0	5.0	Run5BlockList	5	n/a	n/a	n/a	n/a	n/a	n/a	n/a	n/a	n/a	n/a	n/a	n/a	5.0	1.0	5.0	n/a	n/a	n/a	n/a	n/a	n/a	n/a	n/a	n/a	n/a	n/a	n/a	n/a	n/a	n/a	n/a	n/a	n/a	n/a	n/a	n/a	n/a	n/a	n/a	n/a	n/a	n/a	n/a	n/a	n/a	n/a	n/a	n/a	n/a	n/a	n/a	n/a	n/a	n/a	n/a	n/a	n/a	n/a	n/a	n/a	n/a	n/a	n/a	n/a	n/a	n/a	n/a	n/a	n/a	n/a	n/a	n/a	n/a	n/a	n/a	n/a	n/a	n/a	n/a	n/a	n/a	n/a	n/a	n/a	n/a	n/a	n/a	n/a	n/a	n/a	A5_05.jpg	500	0	342787	0	342787	0	TrialProc1	A5HighLargeEDBlockList	2500	0	340288	0	340287	-1	340287	2500	n/a	0	0	119.957
123	2.5	000_R01_VB_allProc	11	1	"<?xml version=""1.0""?>\n<Clock xmlns:dt=""urn:schemas-microsoft-com:datatypes""><Description dt:dt=""string"">E-Prime Primary Realtime Clock</Description><StartTime><Timestamp dt:dt=""int"">0</Timestamp><DateUtc dt:dt=""string"">2018-08-24T17:52:07Z</DateUtc></StartTime><FrequencyChanges><FrequencyChange><Frequency dt:dt=""r8"">3020390</Frequency><Timestamp dt:dt=""r8"">745344786578</Timestamp><Current dt:dt=""r8"">0</Current><DateUtc dt:dt=""string"">2018-08-24T17:52:07Z</DateUtc></FrequencyChange></FrequencyChanges></Clock>\n"	000_R01_VB_allProc-11-1	60.022	1.0.0.185	1	-1978907988	Professional	2.0.10.356	2.0.10.356	08-24-2018	8/24/2018 5:52:07 PM	13:52:07	2.0.10.252	2	0	0	220331	7	220331	3999	-999999	396522	-3	380273	0	Run5Proc	2	1	2	RunList	5	HighLargeED	8000	0	346285	0	346285	0	346285	0	A5HighLargeEDBlockProc	n/a	n/a	n/a	n/a	n/a	n/a	n/a	n/a	n/a	n/a	n/a	n/a	5.0	1.0	5.0	Run5BlockList	6	n/a	n/a	n/a	n/a	n/a	n/a	n/a	n/a	n/a	n/a	n/a	n/a	6.0	1.0	6.0	n/a	n/a	n/a	n/a	n/a	n/a	n/a	n/a	n/a	n/a	n/a	n/a	n/a	n/a	n/a	n/a	n/a	n/a	n/a	n/a	n/a	n/a	n/a	n/a	n/a	n/a	n/a	n/a	n/a	n/a	n/a	n/a	n/a	n/a	n/a	n/a	n/a	n/a	n/a	n/a	n/a	n/a	n/a	n/a	n/a	n/a	n/a	n/a	n/a	n/a	n/a	n/a	n/a	n/a	n/a	n/a	n/a	n/a	n/a	n/a	n/a	n/a	n/a	n/a	n/a	n/a	n/a	n/a	n/a	n/a	n/a	n/a	n/a	n/a	n/a	A5_06.jpg	500	0	345785	-1	345785	0	TrialProc1	A5HighLargeEDBlockList	2500	0	343286	0	343286	-1	343286	2499	n/a	0	0	122.956
134	2.5	000_R01_VB_allProc	11	1	"<?xml version=""1.0""?>\n<Clock xmlns:dt=""urn:schemas-microsoft-com:datatypes""><Description dt:dt=""string"">E-Prime Primary Realtime Clock</Description><StartTime><Timestamp dt:dt=""int"">0</Timestamp><DateUtc dt:dt=""string"">2018-08-24T17:52:07Z</DateUtc></StartTime><FrequencyChanges><FrequencyChange><Frequency dt:dt=""r8"">3020390</Frequency><Timestamp dt:dt=""r8"">745344786578</Timestamp><Current dt:dt=""r8"">0</Current><DateUtc dt:dt=""string"">2018-08-24T17:52:07Z</DateUtc></FrequencyChange></FrequencyChanges></Clock>\n"	000_R01_VB_allProc-11-1	60.022	1.0.0.185	1	-1978907988	Professional	2.0.10.356	2.0.10.356	08-24-2018	8/24/2018 5:52:07 PM	13:52:07	2.0.10.252	2	0	0	220331	7	220331	3999	-999999	396522	-3	380273	0	Run5Proc	2	1	2	RunList	6	LowSmallED	8000	0	372276	0	372276	0	372276	0	D5LowSmallEDBlockProc	n/a	n/a	n/a	n/a	n/a	n/a	n/a	n/a	n/a	n/a	n/a	n/a	6.0	1.0	6.0	Run5BlockList	1	n/a	n/a	n/a	n/a	n/a	n/a	n/a	n/a	n/a	n/a	n/a	n/a	n/a	n/a	n/a	n/a	n/a	n/a	n/a	n/a	n/a	n/a	n/a	n/a	n/a	n/a	n/a	n/a	n/a	n/a	n/a	n/a	n/a	n/a	n/a	n/a	n/a	n/a	n/a	n/a	n/a	n/a	n/a	n/a	n/a	n/a	n/a	n/a	n/a	n/a	n/a	n/a	n/a	n/a	n/a	n/a	n/a	1.0	1.0	1.0	n/a	n/a	n/a	n/a	n/a	n/a	n/a	n/a	n/a	n/a	n/a	n/a	n/a	n/a	n/a	n/a	n/a	n/a	n/a	n/a	n/a	n/a	n/a	n/a	n/a	n/a	n/a	n/a	n/a	n/a	D5_01.jpg	500	0	356781	-1	356781	0	TrialProc1	D5LowSmallEDBlockList	2500	0	354282	0	354282	-3	354282	2499	n/a	0	0	133.952
137	2.5	000_R01_VB_allProc	11	1	"<?xml version=""1.0""?>\n<Clock xmlns:dt=""urn:schemas-microsoft-com:datatypes""><Description dt:dt=""string"">E-Prime Primary Realtime Clock</Description><StartTime><Timestamp dt:dt=""int"">0</Timestamp><DateUtc dt:dt=""string"">2018-08-24T17:52:07Z</DateUtc></StartTime><FrequencyChanges><FrequencyChange><Frequency dt:dt=""r8"">3020390</Frequency><Timestamp dt:dt=""r8"">745344786578</Timestamp><Current dt:dt=""r8"">0</Current><DateUtc dt:dt=""string"">2018-08-24T17:52:07Z</DateUtc></FrequencyChange></FrequencyChanges></Clock>\n"	000_R01_VB_allProc-11-1	60.022	1.0.0.185	1	-1978907988	Professional	2.0.10.356	2.0.10.356	08-24-2018	8/24/2018 5:52:07 PM	13:52:07	2.0.10.252	2	0	0	220331	7	220331	3999	-999999	396522	-3	380273	0	Run5Proc	2	1	2	RunList	6	LowSmallED	8000	0	372276	0	372276	0	372276	0	D5LowSmallEDBlockProc	n/a	n/a	n/a	n/a	n/a	n/a	n/a	n/a	n/a	n/a	n/a	n/a	6.0	1.0	6.0	Run5BlockList	2	n/a	n/a	n/a	n/a	n/a	n/a	n/a	n/a	n/a	n/a	n/a	n/a	n/a	n/a	n/a	n/a	n/a	n/a	n/a	n/a	n/a	n/a	n/a	n/a	n/a	n/a	n/a	n/a	n/a	n/a	n/a	n/a	n/a	n/a	n/a	n/a	n/a	n/a	n/a	n/a	n/a	n/a	n/a	n/a	n/a	n/a	n/a	n/a	n/a	n/a	n/a	n/a	n/a	n/a	n/a	n/a	n/a	2.0	1.0	2.0	n/a	n/a	n/a	n/a	n/a	n/a	n/a	n/a	n/a	n/a	n/a	n/a	n/a	n/a	n/a	n/a	n/a	n/a	n/a	n/a	n/a	n/a	n/a	n/a	n/a	n/a	n/a	n/a	n/a	n/a	D5_02.jpg	500	0	359780	-1	359780	0	TrialProc1	D5LowSmallEDBlockList	2500	0	357281	0	357281	0	357281	2499	n/a	0	0	136.951
140	2.5	000_R01_VB_allProc	11	1	"<?xml version=""1.0""?>\n<Clock xmlns:dt=""urn:schemas-microsoft-com:datatypes""><Description dt:dt=""string"">E-Prime Primary Realtime Clock</Description><StartTime><Timestamp dt:dt=""int"">0</Timestamp><DateUtc dt:dt=""string"">2018-08-24T17:52:07Z</DateUtc></StartTime><FrequencyChanges><FrequencyChange><Frequency dt:dt=""r8"">3020390</Frequency><Timestamp dt:dt=""r8"">745344786578</Timestamp><Current dt:dt=""r8"">0</Current><DateUtc dt:dt=""string"">2018-08-24T17:52:07Z</DateUtc></FrequencyChange></FrequencyChanges></Clock>\n"	000_R01_VB_allProc-11-1	60.022	1.0.0.185	1	-1978907988	Professional	2.0.10.356	2.0.10.356	08-24-2018	8/24/2018 5:52:07 PM	13:52:07	2.0.10.252	2	0	0	220331	7	220331	3999	-999999	396522	-3	380273	0	Run5Proc	2	1	2	RunList	6	LowSmallED	8000	0	372276	0	372276	0	372276	0	D5LowSmallEDBlockProc	n/a	n/a	n/a	n/a	n/a	n/a	n/a	n/a	n/a	n/a	n/a	n/a	6.0	1.0	6.0	Run5BlockList	3	n/a	n/a	n/a	n/a	n/a	n/a	n/a	n/a	n/a	n/a	n/a	n/a	n/a	n/a	n/a	n/a	n/a	n/a	n/a	n/a	n/a	n/a	n/a	n/a	n/a	n/a	n/a	n/a	n/a	n/a	n/a	n/a	n/a	n/a	n/a	n/a	n/a	n/a	n/a	n/a	n/a	n/a	n/a	n/a	n/a	n/a	n/a	n/a	n/a	n/a	n/a	n/a	n/a	n/a	n/a	n/a	n/a	3.0	1.0	3.0	n/a	n/a	n/a	n/a	n/a	n/a	n/a	n/a	n/a	n/a	n/a	n/a	n/a	n/a	n/a	n/a	n/a	n/a	n/a	n/a	n/a	n/a	n/a	n/a	n/a	n/a	n/a	n/a	n/a	n/a	D5_03.jpg	500	0	362779	-1	362779	0	TrialProc1	D5LowSmallEDBlockList	2500	0	360280	0	360280	0	360280	2499	n/a	0	0	139.95
143	2.5	000_R01_VB_allProc	11	1	"<?xml version=""1.0""?>\n<Clock xmlns:dt=""urn:schemas-microsoft-com:datatypes""><Description dt:dt=""string"">E-Prime Primary Realtime Clock</Description><StartTime><Timestamp dt:dt=""int"">0</Timestamp><DateUtc dt:dt=""string"">2018-08-24T17:52:07Z</DateUtc></StartTime><FrequencyChanges><FrequencyChange><Frequency dt:dt=""r8"">3020390</Frequency><Timestamp dt:dt=""r8"">745344786578</Timestamp><Current dt:dt=""r8"">0</Current><DateUtc dt:dt=""string"">2018-08-24T17:52:07Z</DateUtc></FrequencyChange></FrequencyChanges></Clock>\n"	000_R01_VB_allProc-11-1	60.022	1.0.0.185	1	-1978907988	Professional	2.0.10.356	2.0.10.356	08-24-2018	8/24/2018 5:52:07 PM	13:52:07	2.0.10.252	2	0	0	220331	7	220331	3999	-999999	396522	-3	380273	0	Run5Proc	2	1	2	RunList	6	LowSmallED	8000	0	372276	0	372276	0	372276	0	D5LowSmallEDBlockProc	n/a	n/a	n/a	n/a	n/a	n/a	n/a	n/a	n/a	n/a	n/a	n/a	6.0	1.0	6.0	Run5BlockList	4	n/a	n/a	n/a	n/a	n/a	n/a	n/a	n/a	n/a	n/a	n/a	n/a	n/a	n/a	n/a	n/a	n/a	n/a	n/a	n/a	n/a	n/a	n/a	n/a	n/a	n/a	n/a	n/a	n/a	n/a	n/a	n/a	n/a	n/a	n/a	n/a	n/a	n/a	n/a	n/a	n/a	n/a	n/a	n/a	n/a	n/a	n/a	n/a	n/a	n/a	n/a	n/a	n/a	n/a	n/a	n/a	n/a	4.0	1.0	4.0	n/a	n/a	n/a	n/a	n/a	n/a	n/a	n/a	n/a	n/a	n/a	n/a	n/a	n/a	n/a	n/a	n/a	n/a	n/a	n/a	n/a	n/a	n/a	n/a	n/a	n/a	n/a	n/a	n/a	n/a	D5_04.jpg	500	0	365778	-1	365778	0	TrialProc1	D5LowSmallEDBlockList	2500	0	363279	0	363279	0	363279	2499	n/a	0	0	142.949
146	2.5	000_R01_VB_allProc	11	1	"<?xml version=""1.0""?>\n<Clock xmlns:dt=""urn:schemas-microsoft-com:datatypes""><Description dt:dt=""string"">E-Prime Primary Realtime Clock</Description><StartTime><Timestamp dt:dt=""int"">0</Timestamp><DateUtc dt:dt=""string"">2018-08-24T17:52:07Z</DateUtc></StartTime><FrequencyChanges><FrequencyChange><Frequency dt:dt=""r8"">3020390</Frequency><Timestamp dt:dt=""r8"">745344786578</Timestamp><Current dt:dt=""r8"">0</Current><DateUtc dt:dt=""string"">2018-08-24T17:52:07Z</DateUtc></FrequencyChange></FrequencyChanges></Clock>\n"	000_R01_VB_allProc-11-1	60.022	1.0.0.185	1	-1978907988	Professional	2.0.10.356	2.0.10.356	08-24-2018	8/24/2018 5:52:07 PM	13:52:07	2.0.10.252	2	0	0	220331	7	220331	3999	-999999	396522	-3	380273	0	Run5Proc	2	1	2	RunList	6	LowSmallED	8000	0	372276	0	372276	0	372276	0	D5LowSmallEDBlockProc	n/a	n/a	n/a	n/a	n/a	n/a	n/a	n/a	n/a	n/a	n/a	n/a	6.0	1.0	6.0	Run5BlockList	5	n/a	n/a	n/a	n/a	n/a	n/a	n/a	n/a	n/a	n/a	n/a	n/a	n/a	n/a	n/a	n/a	n/a	n/a	n/a	n/a	n/a	n/a	n/a	n/a	n/a	n/a	n/a	n/a	n/a	n/a	n/a	n/a	n/a	n/a	n/a	n/a	n/a	n/a	n/a	n/a	n/a	n/a	n/a	n/a	n/a	n/a	n/a	n/a	n/a	n/a	n/a	n/a	n/a	n/a	n/a	n/a	n/a	5.0	1.0	5.0	n/a	n/a	n/a	n/a	n/a	n/a	n/a	n/a	n/a	n/a	n/a	n/a	n/a	n/a	n/a	n/a	n/a	n/a	n/a	n/a	n/a	n/a	n/a	n/a	n/a	n/a	n/a	n/a	n/a	n/a	D5_05.jpg	500	0	368777	-1	368777	0	TrialProc1	D5LowSmallEDBlockList	2500	0	366278	0	366278	0	366278	2499	n/a	0	0	145.948
149	2.5	000_R01_VB_allProc	11	1	"<?xml version=""1.0""?>\n<Clock xmlns:dt=""urn:schemas-microsoft-com:datatypes""><Description dt:dt=""string"">E-Prime Primary Realtime Clock</Description><StartTime><Timestamp dt:dt=""int"">0</Timestamp><DateUtc dt:dt=""string"">2018-08-24T17:52:07Z</DateUtc></StartTime><FrequencyChanges><FrequencyChange><Frequency dt:dt=""r8"">3020390</Frequency><Timestamp dt:dt=""r8"">745344786578</Timestamp><Current dt:dt=""r8"">0</Current><DateUtc dt:dt=""string"">2018-08-24T17:52:07Z</DateUtc></FrequencyChange></FrequencyChanges></Clock>\n"	000_R01_VB_allProc-11-1	60.022	1.0.0.185	1	-1978907988	Professional	2.0.10.356	2.0.10.356	08-24-2018	8/24/2018 5:52:07 PM	13:52:07	2.0.10.252	2	0	0	220331	7	220331	3999	-999999	396522	-3	380273	0	Run5Proc	2	1	2	RunList	6	LowSmallED	8000	0	372276	0	372276	0	372276	0	D5LowSmallEDBlockProc	n/a	n/a	n/a	n/a	n/a	n/a	n/a	n/a	n/a	n/a	n/a	n/a	6.0	1.0	6.0	Run5BlockList	6	n/a	n/a	n/a	n/a	n/a	n/a	n/a	n/a	n/a	n/a	n/a	n/a	n/a	n/a	n/a	n/a	n/a	n/a	n/a	n/a	n/a	n/a	n/a	n/a	n/a	n/a	n/a	n/a	n/a	n/a	n/a	n/a	n/a	n/a	n/a	n/a	n/a	n/a	n/a	n/a	n/a	n/a	n/a	n/a	n/a	n/a	n/a	n/a	n/a	n/a	n/a	n/a	n/a	n/a	n/a	n/a	n/a	6.0	1.0	6.0	n/a	n/a	n/a	n/a	n/a	n/a	n/a	n/a	n/a	n/a	n/a	n/a	n/a	n/a	n/a	n/a	n/a	n/a	n/a	n/a	n/a	n/a	n/a	n/a	n/a	n/a	n/a	n/a	n/a	n/a	D5_06.jpg	500	0	371776	-1	371776	0	TrialProc1	D5LowSmallEDBlockList	2500	0	369277	0	369277	0	369277	2499	n/a	0	0	148.947
