onset	duration	experiment_name	sub	ses	clock_information	datafile_basename	display_refreshrate	experiment_version	group	randomseed	runtime_capabilities	runtime_version	runtimeversionexpected	session_date	session_start_date_time_utc	session_time	studio_version	block	fixation2trs_durationerror	fixation2trs_offsetdelay	fixation2trs_offsettime	fixation2trs_onsetdelay	fixation2trs_onsettime	fixation2trs_onsettoonsettime	goodwork_durationerror	goodwork_finishtime	goodwork_onsetdelay	goodwork_onsettime	goodwork_onsettoonsettime	procedure_block	runlist	runlist_cycle	runlist_sample	running_block	trial	condition	interblockinterval_duration	interblockinterval_durationerror	interblockinterval_finishtime	interblockinterval_offsetdelay	interblockinterval_offsettime	interblockinterval_onsetdelay	interblockinterval_onsettime	interblockinterval_onsettoonsettime	procedure_trial	run1blocklist	run1blocklist_cycle	run1blocklist_sample	run2blocklist	run2blocklist_cycle	run2blocklist_sample	run3blocklist	run3blocklist_cycle	run3blocklist_sample	run4blocklist	run4blocklist_cycle	run4blocklist_sample	run5blocklist	run5blocklist_cycle	run5blocklist_sample	running_trial	subtrial	a1highlargeedblocklist	a1highlargeedblocklist_cycle	a1highlargeedblocklist_sample	a2highlargeedblocklist	a2highlargeedblocklist_cycle	a2highlargeedblocklist_sample	a3highlargeedblocklist	a3highlargeedblocklist_cycle	a3highlargeedblocklist_sample	a4highlargeedblocklist	a4highlargeedblocklist_cycle	a4highlargeedblocklist_sample	a5highlargeedblocklist	a5highlargeedblocklist_cycle	a5highlargeedblocklist_sample	b1highsmalledblocklist	b1highsmalledblocklist_cycle	b1highsmalledblocklist_sample	b2highsmalledblocklist	b2highsmalledblocklist_cycle	b2highsmalledblocklist_sample	b3highsmalledblocklist	b3highsmalledblocklist_cycle	b3highsmalledblocklist_sample	b4highsmalledblocklist	b4highsmalledblocklist_cycle	b4highsmalledblocklist_sample	b5highsmalledblocklist	b5highsmalledblocklist_cycle	b5highsmalledblocklist_sample	c1lowlargeedblocklist	c1lowlargeedblocklist_cycle	c1lowlargeedblocklist_sample	c2lowlargeedblocklist	c2lowlargeedblocklist_cycle	c2lowlargeedblocklist_sample	c3lowlargeedblocklist	c3lowlargeedblocklist_cycle	c3lowlargeedblocklist_sample	c4lowlargeedblocklist	c4lowlargeedblocklist_cycle	c4lowlargeedblocklist_sample	c5lowlargeedblocklist	c5lowlargeedblocklist_cycle	c5lowlargeedblocklist_sample	d1lowsmalledblocklist	d1lowsmalledblocklist_cycle	d1lowsmalledblocklist_sample	d2highlargeedblocklist	d2highlargeedblocklist_cycle	d2highlargeedblocklist_sample	d3lowsmalledblocklist	d3lowsmalledblocklist_cycle	d3lowsmalledblocklist_sample	d4lowsmalledblocklist	d4lowsmalledblocklist_cycle	d4lowsmalledblocklist_sample	d5lowsmalledblocklist	d5lowsmalledblocklist_cycle	d5lowsmalledblocklist_sample	e1officelargeblocklist	e1officelargeblocklist_cycle	e1officelargeblocklist_sample	e2officelargeblocklist	e2officelargeblocklist_cycle	e2officelargeblocklist_sample	e3officelargeblocklist	e3officelargeblocklist_cycle	e3officelargeblocklist_sample	e4officelargeblocklist	e4officelargeblocklist_cycle	e4officelargeblocklist_sample	e5officelargeblocklist	e5officelargeblocklist_cycle	e5officelargeblocklist_sample	f1officesmallblocklist	f1officesmallblocklist_cycle	f1officesmallblocklist_sample	f2officesmallblocklist	f2officesmallblocklist_cycle	f2officesmallblocklist_sample	f3officesmallblocklist	f3officesmallblocklist_cycle	f3officesmallblocklist_sample	f4officesmallblocklist	f4officesmallblocklist_cycle	f4officesmallblocklist_sample	f5officesmallblocklist	f5officesmallblocklist_cycle	f5officesmallblocklist_sample	filename	isi_duration	isi_durationerror	isi_finishtime	isi_onsetdelay	isi_onsettime	isi_onsettoonsettime	procedure_subtrial	running_subtrial	stimslide_duration	stimslide_durationerror	stimslide_finishtime	stimslide_offsetdelay	stimslide_offsettime	stimslide_onsetdelay	stimslide_onsettime	stimslide_onsettoonsettime	stimslide_resp	stimslide_rt	stimslide_rttime	onset_unrounded
4	2.5	000_R01_VB_allProc	131	1	"<?xml version=""1.0""?>\n<Clock xmlns:dt=""urn:schemas-microsoft-com:datatypes""><Description dt:dt=""string"">E-Prime Primary Realtime Clock</Description><StartTime><Timestamp dt:dt=""int"">0</Timestamp><DateUtc dt:dt=""string"">2022-05-03T22:40:33Z</DateUtc></StartTime><FrequencyChanges><FrequencyChange><Frequency dt:dt=""r8"">3020371</Frequency><Timestamp dt:dt=""r8"">99254816021</Timestamp><Current dt:dt=""r8"">0</Current><DateUtc dt:dt=""string"">2022-05-03T22:40:33Z</DateUtc></FrequencyChange></FrequencyChanges></Clock>\n"	000_R01_VB_allProc-131-1	60.001	1.0.0.232	1	471161035	Professional	2.0.10.356	2.0.10.356	05-03-2022	n/a	18:40:33	2.0.10.252	3	0	0	428719	11	428719	4000	-999999	603984	0	588717	0	Run4Proc	3	1	3	RunList	1	OfficeSmall	8000	0	450719	0	450719	0	450719	0	F4OfficeSmallBlockProc	n/a	n/a	n/a	n/a	n/a	n/a	n/a	n/a	n/a	1.0	1.0	1.0	n/a	n/a	n/a	Run4BlockList	1	n/a	n/a	n/a	n/a	n/a	n/a	n/a	n/a	n/a	n/a	n/a	n/a	n/a	n/a	n/a	n/a	n/a	n/a	n/a	n/a	n/a	n/a	n/a	n/a	n/a	n/a	n/a	n/a	n/a	n/a	n/a	n/a	n/a	n/a	n/a	n/a	n/a	n/a	n/a	n/a	n/a	n/a	n/a	n/a	n/a	n/a	n/a	n/a	n/a	n/a	n/a	n/a	n/a	n/a	n/a	n/a	n/a	n/a	n/a	n/a	n/a	n/a	n/a	n/a	n/a	n/a	n/a	n/a	n/a	n/a	n/a	n/a	n/a	n/a	n/a	n/a	n/a	n/a	n/a	n/a	n/a	n/a	n/a	n/a	1.0	1.0	1.0	n/a	n/a	n/a	F4_01.jpg	500	0	435219	0	435219	0	TrialProc1	F4OfficeSmallBlockList	2500	0	432719	0	432719	0	432719	2500	c	1211	433930	4.0
7	2.5	000_R01_VB_allProc	131	1	"<?xml version=""1.0""?>\n<Clock xmlns:dt=""urn:schemas-microsoft-com:datatypes""><Description dt:dt=""string"">E-Prime Primary Realtime Clock</Description><StartTime><Timestamp dt:dt=""int"">0</Timestamp><DateUtc dt:dt=""string"">2022-05-03T22:40:33Z</DateUtc></StartTime><FrequencyChanges><FrequencyChange><Frequency dt:dt=""r8"">3020371</Frequency><Timestamp dt:dt=""r8"">99254816021</Timestamp><Current dt:dt=""r8"">0</Current><DateUtc dt:dt=""string"">2022-05-03T22:40:33Z</DateUtc></FrequencyChange></FrequencyChanges></Clock>\n"	000_R01_VB_allProc-131-1	60.001	1.0.0.232	1	471161035	Professional	2.0.10.356	2.0.10.356	05-03-2022	n/a	18:40:33	2.0.10.252	3	0	0	428719	11	428719	4000	-999999	603984	0	588717	0	Run4Proc	3	1	3	RunList	1	OfficeSmall	8000	0	450719	0	450719	0	450719	0	F4OfficeSmallBlockProc	n/a	n/a	n/a	n/a	n/a	n/a	n/a	n/a	n/a	1.0	1.0	1.0	n/a	n/a	n/a	Run4BlockList	2	n/a	n/a	n/a	n/a	n/a	n/a	n/a	n/a	n/a	n/a	n/a	n/a	n/a	n/a	n/a	n/a	n/a	n/a	n/a	n/a	n/a	n/a	n/a	n/a	n/a	n/a	n/a	n/a	n/a	n/a	n/a	n/a	n/a	n/a	n/a	n/a	n/a	n/a	n/a	n/a	n/a	n/a	n/a	n/a	n/a	n/a	n/a	n/a	n/a	n/a	n/a	n/a	n/a	n/a	n/a	n/a	n/a	n/a	n/a	n/a	n/a	n/a	n/a	n/a	n/a	n/a	n/a	n/a	n/a	n/a	n/a	n/a	n/a	n/a	n/a	n/a	n/a	n/a	n/a	n/a	n/a	n/a	n/a	n/a	2.0	1.0	2.0	n/a	n/a	n/a	F4_02.jpg	500	0	438219	0	438219	0	TrialProc1	F4OfficeSmallBlockList	2500	0	435719	0	435719	0	435719	2500	c	699	436418	7.0
10	2.5	000_R01_VB_allProc	131	1	"<?xml version=""1.0""?>\n<Clock xmlns:dt=""urn:schemas-microsoft-com:datatypes""><Description dt:dt=""string"">E-Prime Primary Realtime Clock</Description><StartTime><Timestamp dt:dt=""int"">0</Timestamp><DateUtc dt:dt=""string"">2022-05-03T22:40:33Z</DateUtc></StartTime><FrequencyChanges><FrequencyChange><Frequency dt:dt=""r8"">3020371</Frequency><Timestamp dt:dt=""r8"">99254816021</Timestamp><Current dt:dt=""r8"">0</Current><DateUtc dt:dt=""string"">2022-05-03T22:40:33Z</DateUtc></FrequencyChange></FrequencyChanges></Clock>\n"	000_R01_VB_allProc-131-1	60.001	1.0.0.232	1	471161035	Professional	2.0.10.356	2.0.10.356	05-03-2022	n/a	18:40:33	2.0.10.252	3	0	0	428719	11	428719	4000	-999999	603984	0	588717	0	Run4Proc	3	1	3	RunList	1	OfficeSmall	8000	0	450719	0	450719	0	450719	0	F4OfficeSmallBlockProc	n/a	n/a	n/a	n/a	n/a	n/a	n/a	n/a	n/a	1.0	1.0	1.0	n/a	n/a	n/a	Run4BlockList	3	n/a	n/a	n/a	n/a	n/a	n/a	n/a	n/a	n/a	n/a	n/a	n/a	n/a	n/a	n/a	n/a	n/a	n/a	n/a	n/a	n/a	n/a	n/a	n/a	n/a	n/a	n/a	n/a	n/a	n/a	n/a	n/a	n/a	n/a	n/a	n/a	n/a	n/a	n/a	n/a	n/a	n/a	n/a	n/a	n/a	n/a	n/a	n/a	n/a	n/a	n/a	n/a	n/a	n/a	n/a	n/a	n/a	n/a	n/a	n/a	n/a	n/a	n/a	n/a	n/a	n/a	n/a	n/a	n/a	n/a	n/a	n/a	n/a	n/a	n/a	n/a	n/a	n/a	n/a	n/a	n/a	n/a	n/a	n/a	3.0	1.0	3.0	n/a	n/a	n/a	F4_03.jpg	500	0	441219	0	441219	0	TrialProc1	F4OfficeSmallBlockList	2500	0	438719	0	438719	0	438719	2500	c	435	439154	10.0
13	2.5	000_R01_VB_allProc	131	1	"<?xml version=""1.0""?>\n<Clock xmlns:dt=""urn:schemas-microsoft-com:datatypes""><Description dt:dt=""string"">E-Prime Primary Realtime Clock</Description><StartTime><Timestamp dt:dt=""int"">0</Timestamp><DateUtc dt:dt=""string"">2022-05-03T22:40:33Z</DateUtc></StartTime><FrequencyChanges><FrequencyChange><Frequency dt:dt=""r8"">3020371</Frequency><Timestamp dt:dt=""r8"">99254816021</Timestamp><Current dt:dt=""r8"">0</Current><DateUtc dt:dt=""string"">2022-05-03T22:40:33Z</DateUtc></FrequencyChange></FrequencyChanges></Clock>\n"	000_R01_VB_allProc-131-1	60.001	1.0.0.232	1	471161035	Professional	2.0.10.356	2.0.10.356	05-03-2022	n/a	18:40:33	2.0.10.252	3	0	0	428719	11	428719	4000	-999999	603984	0	588717	0	Run4Proc	3	1	3	RunList	1	OfficeSmall	8000	0	450719	0	450719	0	450719	0	F4OfficeSmallBlockProc	n/a	n/a	n/a	n/a	n/a	n/a	n/a	n/a	n/a	1.0	1.0	1.0	n/a	n/a	n/a	Run4BlockList	4	n/a	n/a	n/a	n/a	n/a	n/a	n/a	n/a	n/a	n/a	n/a	n/a	n/a	n/a	n/a	n/a	n/a	n/a	n/a	n/a	n/a	n/a	n/a	n/a	n/a	n/a	n/a	n/a	n/a	n/a	n/a	n/a	n/a	n/a	n/a	n/a	n/a	n/a	n/a	n/a	n/a	n/a	n/a	n/a	n/a	n/a	n/a	n/a	n/a	n/a	n/a	n/a	n/a	n/a	n/a	n/a	n/a	n/a	n/a	n/a	n/a	n/a	n/a	n/a	n/a	n/a	n/a	n/a	n/a	n/a	n/a	n/a	n/a	n/a	n/a	n/a	n/a	n/a	n/a	n/a	n/a	n/a	n/a	n/a	4.0	1.0	4.0	n/a	n/a	n/a	F4_04.jpg	500	0	444219	0	444219	0	TrialProc1	F4OfficeSmallBlockList	2500	0	441719	0	441719	0	441719	2500	c	787	442506	13.0
16	2.5	000_R01_VB_allProc	131	1	"<?xml version=""1.0""?>\n<Clock xmlns:dt=""urn:schemas-microsoft-com:datatypes""><Description dt:dt=""string"">E-Prime Primary Realtime Clock</Description><StartTime><Timestamp dt:dt=""int"">0</Timestamp><DateUtc dt:dt=""string"">2022-05-03T22:40:33Z</DateUtc></StartTime><FrequencyChanges><FrequencyChange><Frequency dt:dt=""r8"">3020371</Frequency><Timestamp dt:dt=""r8"">99254816021</Timestamp><Current dt:dt=""r8"">0</Current><DateUtc dt:dt=""string"">2022-05-03T22:40:33Z</DateUtc></FrequencyChange></FrequencyChanges></Clock>\n"	000_R01_VB_allProc-131-1	60.001	1.0.0.232	1	471161035	Professional	2.0.10.356	2.0.10.356	05-03-2022	n/a	18:40:33	2.0.10.252	3	0	0	428719	11	428719	4000	-999999	603984	0	588717	0	Run4Proc	3	1	3	RunList	1	OfficeSmall	8000	0	450719	0	450719	0	450719	0	F4OfficeSmallBlockProc	n/a	n/a	n/a	n/a	n/a	n/a	n/a	n/a	n/a	1.0	1.0	1.0	n/a	n/a	n/a	Run4BlockList	5	n/a	n/a	n/a	n/a	n/a	n/a	n/a	n/a	n/a	n/a	n/a	n/a	n/a	n/a	n/a	n/a	n/a	n/a	n/a	n/a	n/a	n/a	n/a	n/a	n/a	n/a	n/a	n/a	n/a	n/a	n/a	n/a	n/a	n/a	n/a	n/a	n/a	n/a	n/a	n/a	n/a	n/a	n/a	n/a	n/a	n/a	n/a	n/a	n/a	n/a	n/a	n/a	n/a	n/a	n/a	n/a	n/a	n/a	n/a	n/a	n/a	n/a	n/a	n/a	n/a	n/a	n/a	n/a	n/a	n/a	n/a	n/a	n/a	n/a	n/a	n/a	n/a	n/a	n/a	n/a	n/a	n/a	n/a	n/a	5.0	1.0	5.0	n/a	n/a	n/a	F4_05.jpg	500	0	447219	0	447219	0	TrialProc1	F4OfficeSmallBlockList	2500	0	444719	0	444719	0	444719	2500	c	915	445634	16.0
19	2.5	000_R01_VB_allProc	131	1	"<?xml version=""1.0""?>\n<Clock xmlns:dt=""urn:schemas-microsoft-com:datatypes""><Description dt:dt=""string"">E-Prime Primary Realtime Clock</Description><StartTime><Timestamp dt:dt=""int"">0</Timestamp><DateUtc dt:dt=""string"">2022-05-03T22:40:33Z</DateUtc></StartTime><FrequencyChanges><FrequencyChange><Frequency dt:dt=""r8"">3020371</Frequency><Timestamp dt:dt=""r8"">99254816021</Timestamp><Current dt:dt=""r8"">0</Current><DateUtc dt:dt=""string"">2022-05-03T22:40:33Z</DateUtc></FrequencyChange></FrequencyChanges></Clock>\n"	000_R01_VB_allProc-131-1	60.001	1.0.0.232	1	471161035	Professional	2.0.10.356	2.0.10.356	05-03-2022	n/a	18:40:33	2.0.10.252	3	0	0	428719	11	428719	4000	-999999	603984	0	588717	0	Run4Proc	3	1	3	RunList	1	OfficeSmall	8000	0	450719	0	450719	0	450719	0	F4OfficeSmallBlockProc	n/a	n/a	n/a	n/a	n/a	n/a	n/a	n/a	n/a	1.0	1.0	1.0	n/a	n/a	n/a	Run4BlockList	6	n/a	n/a	n/a	n/a	n/a	n/a	n/a	n/a	n/a	n/a	n/a	n/a	n/a	n/a	n/a	n/a	n/a	n/a	n/a	n/a	n/a	n/a	n/a	n/a	n/a	n/a	n/a	n/a	n/a	n/a	n/a	n/a	n/a	n/a	n/a	n/a	n/a	n/a	n/a	n/a	n/a	n/a	n/a	n/a	n/a	n/a	n/a	n/a	n/a	n/a	n/a	n/a	n/a	n/a	n/a	n/a	n/a	n/a	n/a	n/a	n/a	n/a	n/a	n/a	n/a	n/a	n/a	n/a	n/a	n/a	n/a	n/a	n/a	n/a	n/a	n/a	n/a	n/a	n/a	n/a	n/a	n/a	n/a	n/a	6.0	1.0	6.0	n/a	n/a	n/a	F4_06.jpg	500	0	450219	0	450219	0	TrialProc1	F4OfficeSmallBlockList	2500	0	447719	0	447719	0	447719	2500	c	787	448506	19.0
30	2.5	000_R01_VB_allProc	131	1	"<?xml version=""1.0""?>\n<Clock xmlns:dt=""urn:schemas-microsoft-com:datatypes""><Description dt:dt=""string"">E-Prime Primary Realtime Clock</Description><StartTime><Timestamp dt:dt=""int"">0</Timestamp><DateUtc dt:dt=""string"">2022-05-03T22:40:33Z</DateUtc></StartTime><FrequencyChanges><FrequencyChange><Frequency dt:dt=""r8"">3020371</Frequency><Timestamp dt:dt=""r8"">99254816021</Timestamp><Current dt:dt=""r8"">0</Current><DateUtc dt:dt=""string"">2022-05-03T22:40:33Z</DateUtc></FrequencyChange></FrequencyChanges></Clock>\n"	000_R01_VB_allProc-131-1	60.001	1.0.0.232	1	471161035	Professional	2.0.10.356	2.0.10.356	05-03-2022	n/a	18:40:33	2.0.10.252	3	0	0	428719	11	428719	4000	-999999	603984	0	588717	0	Run4Proc	3	1	3	RunList	2	HighSmallED	8000	1	476719	1	476719	0	476718	0	B4HighSmallEDBlockProc	n/a	n/a	n/a	n/a	n/a	n/a	n/a	n/a	n/a	2.0	1.0	2.0	n/a	n/a	n/a	Run4BlockList	1	n/a	n/a	n/a	n/a	n/a	n/a	n/a	n/a	n/a	n/a	n/a	n/a	n/a	n/a	n/a	n/a	n/a	n/a	n/a	n/a	n/a	n/a	n/a	n/a	1.0	1.0	1.0	n/a	n/a	n/a	n/a	n/a	n/a	n/a	n/a	n/a	n/a	n/a	n/a	n/a	n/a	n/a	n/a	n/a	n/a	n/a	n/a	n/a	n/a	n/a	n/a	n/a	n/a	n/a	n/a	n/a	n/a	n/a	n/a	n/a	n/a	n/a	n/a	n/a	n/a	n/a	n/a	n/a	n/a	n/a	n/a	n/a	n/a	n/a	n/a	n/a	n/a	n/a	n/a	n/a	n/a	n/a	n/a	n/a	n/a	n/a	n/a	n/a	n/a	n/a	B4_01.jpg	500	0	461219	0	461219	0	TrialProc1	B4HighSmallEDBlockList	2500	0	458719	0	458719	0	458719	2500	d	1203	459922	30.0
33	2.5	000_R01_VB_allProc	131	1	"<?xml version=""1.0""?>\n<Clock xmlns:dt=""urn:schemas-microsoft-com:datatypes""><Description dt:dt=""string"">E-Prime Primary Realtime Clock</Description><StartTime><Timestamp dt:dt=""int"">0</Timestamp><DateUtc dt:dt=""string"">2022-05-03T22:40:33Z</DateUtc></StartTime><FrequencyChanges><FrequencyChange><Frequency dt:dt=""r8"">3020371</Frequency><Timestamp dt:dt=""r8"">99254816021</Timestamp><Current dt:dt=""r8"">0</Current><DateUtc dt:dt=""string"">2022-05-03T22:40:33Z</DateUtc></FrequencyChange></FrequencyChanges></Clock>\n"	000_R01_VB_allProc-131-1	60.001	1.0.0.232	1	471161035	Professional	2.0.10.356	2.0.10.356	05-03-2022	n/a	18:40:33	2.0.10.252	3	0	0	428719	11	428719	4000	-999999	603984	0	588717	0	Run4Proc	3	1	3	RunList	2	HighSmallED	8000	1	476719	1	476719	0	476718	0	B4HighSmallEDBlockProc	n/a	n/a	n/a	n/a	n/a	n/a	n/a	n/a	n/a	2.0	1.0	2.0	n/a	n/a	n/a	Run4BlockList	2	n/a	n/a	n/a	n/a	n/a	n/a	n/a	n/a	n/a	n/a	n/a	n/a	n/a	n/a	n/a	n/a	n/a	n/a	n/a	n/a	n/a	n/a	n/a	n/a	2.0	1.0	2.0	n/a	n/a	n/a	n/a	n/a	n/a	n/a	n/a	n/a	n/a	n/a	n/a	n/a	n/a	n/a	n/a	n/a	n/a	n/a	n/a	n/a	n/a	n/a	n/a	n/a	n/a	n/a	n/a	n/a	n/a	n/a	n/a	n/a	n/a	n/a	n/a	n/a	n/a	n/a	n/a	n/a	n/a	n/a	n/a	n/a	n/a	n/a	n/a	n/a	n/a	n/a	n/a	n/a	n/a	n/a	n/a	n/a	n/a	n/a	n/a	n/a	n/a	n/a	B4_02.jpg	500	0	464219	0	464219	0	TrialProc1	B4HighSmallEDBlockList	2500	0	461719	0	461719	0	461719	2500	d	979	462698	33.0
36	2.5	000_R01_VB_allProc	131	1	"<?xml version=""1.0""?>\n<Clock xmlns:dt=""urn:schemas-microsoft-com:datatypes""><Description dt:dt=""string"">E-Prime Primary Realtime Clock</Description><StartTime><Timestamp dt:dt=""int"">0</Timestamp><DateUtc dt:dt=""string"">2022-05-03T22:40:33Z</DateUtc></StartTime><FrequencyChanges><FrequencyChange><Frequency dt:dt=""r8"">3020371</Frequency><Timestamp dt:dt=""r8"">99254816021</Timestamp><Current dt:dt=""r8"">0</Current><DateUtc dt:dt=""string"">2022-05-03T22:40:33Z</DateUtc></FrequencyChange></FrequencyChanges></Clock>\n"	000_R01_VB_allProc-131-1	60.001	1.0.0.232	1	471161035	Professional	2.0.10.356	2.0.10.356	05-03-2022	n/a	18:40:33	2.0.10.252	3	0	0	428719	11	428719	4000	-999999	603984	0	588717	0	Run4Proc	3	1	3	RunList	2	HighSmallED	8000	1	476719	1	476719	0	476718	0	B4HighSmallEDBlockProc	n/a	n/a	n/a	n/a	n/a	n/a	n/a	n/a	n/a	2.0	1.0	2.0	n/a	n/a	n/a	Run4BlockList	3	n/a	n/a	n/a	n/a	n/a	n/a	n/a	n/a	n/a	n/a	n/a	n/a	n/a	n/a	n/a	n/a	n/a	n/a	n/a	n/a	n/a	n/a	n/a	n/a	3.0	1.0	3.0	n/a	n/a	n/a	n/a	n/a	n/a	n/a	n/a	n/a	n/a	n/a	n/a	n/a	n/a	n/a	n/a	n/a	n/a	n/a	n/a	n/a	n/a	n/a	n/a	n/a	n/a	n/a	n/a	n/a	n/a	n/a	n/a	n/a	n/a	n/a	n/a	n/a	n/a	n/a	n/a	n/a	n/a	n/a	n/a	n/a	n/a	n/a	n/a	n/a	n/a	n/a	n/a	n/a	n/a	n/a	n/a	n/a	n/a	n/a	n/a	n/a	n/a	n/a	B4_03.jpg	500	0	467219	0	467219	0	TrialProc1	B4HighSmallEDBlockList	2500	0	464719	0	464719	0	464719	2500	d	1059	465778	36.0
39	2.5	000_R01_VB_allProc	131	1	"<?xml version=""1.0""?>\n<Clock xmlns:dt=""urn:schemas-microsoft-com:datatypes""><Description dt:dt=""string"">E-Prime Primary Realtime Clock</Description><StartTime><Timestamp dt:dt=""int"">0</Timestamp><DateUtc dt:dt=""string"">2022-05-03T22:40:33Z</DateUtc></StartTime><FrequencyChanges><FrequencyChange><Frequency dt:dt=""r8"">3020371</Frequency><Timestamp dt:dt=""r8"">99254816021</Timestamp><Current dt:dt=""r8"">0</Current><DateUtc dt:dt=""string"">2022-05-03T22:40:33Z</DateUtc></FrequencyChange></FrequencyChanges></Clock>\n"	000_R01_VB_allProc-131-1	60.001	1.0.0.232	1	471161035	Professional	2.0.10.356	2.0.10.356	05-03-2022	n/a	18:40:33	2.0.10.252	3	0	0	428719	11	428719	4000	-999999	603984	0	588717	0	Run4Proc	3	1	3	RunList	2	HighSmallED	8000	1	476719	1	476719	0	476718	0	B4HighSmallEDBlockProc	n/a	n/a	n/a	n/a	n/a	n/a	n/a	n/a	n/a	2.0	1.0	2.0	n/a	n/a	n/a	Run4BlockList	4	n/a	n/a	n/a	n/a	n/a	n/a	n/a	n/a	n/a	n/a	n/a	n/a	n/a	n/a	n/a	n/a	n/a	n/a	n/a	n/a	n/a	n/a	n/a	n/a	4.0	1.0	4.0	n/a	n/a	n/a	n/a	n/a	n/a	n/a	n/a	n/a	n/a	n/a	n/a	n/a	n/a	n/a	n/a	n/a	n/a	n/a	n/a	n/a	n/a	n/a	n/a	n/a	n/a	n/a	n/a	n/a	n/a	n/a	n/a	n/a	n/a	n/a	n/a	n/a	n/a	n/a	n/a	n/a	n/a	n/a	n/a	n/a	n/a	n/a	n/a	n/a	n/a	n/a	n/a	n/a	n/a	n/a	n/a	n/a	n/a	n/a	n/a	n/a	n/a	n/a	B4_04.jpg	500	0	470219	0	470219	0	TrialProc1	B4HighSmallEDBlockList	2500	0	467719	0	467719	0	467719	2500	d	1067	468786	39.0
42	2.5	000_R01_VB_allProc	131	1	"<?xml version=""1.0""?>\n<Clock xmlns:dt=""urn:schemas-microsoft-com:datatypes""><Description dt:dt=""string"">E-Prime Primary Realtime Clock</Description><StartTime><Timestamp dt:dt=""int"">0</Timestamp><DateUtc dt:dt=""string"">2022-05-03T22:40:33Z</DateUtc></StartTime><FrequencyChanges><FrequencyChange><Frequency dt:dt=""r8"">3020371</Frequency><Timestamp dt:dt=""r8"">99254816021</Timestamp><Current dt:dt=""r8"">0</Current><DateUtc dt:dt=""string"">2022-05-03T22:40:33Z</DateUtc></FrequencyChange></FrequencyChanges></Clock>\n"	000_R01_VB_allProc-131-1	60.001	1.0.0.232	1	471161035	Professional	2.0.10.356	2.0.10.356	05-03-2022	n/a	18:40:33	2.0.10.252	3	0	0	428719	11	428719	4000	-999999	603984	0	588717	0	Run4Proc	3	1	3	RunList	2	HighSmallED	8000	1	476719	1	476719	0	476718	0	B4HighSmallEDBlockProc	n/a	n/a	n/a	n/a	n/a	n/a	n/a	n/a	n/a	2.0	1.0	2.0	n/a	n/a	n/a	Run4BlockList	5	n/a	n/a	n/a	n/a	n/a	n/a	n/a	n/a	n/a	n/a	n/a	n/a	n/a	n/a	n/a	n/a	n/a	n/a	n/a	n/a	n/a	n/a	n/a	n/a	5.0	1.0	5.0	n/a	n/a	n/a	n/a	n/a	n/a	n/a	n/a	n/a	n/a	n/a	n/a	n/a	n/a	n/a	n/a	n/a	n/a	n/a	n/a	n/a	n/a	n/a	n/a	n/a	n/a	n/a	n/a	n/a	n/a	n/a	n/a	n/a	n/a	n/a	n/a	n/a	n/a	n/a	n/a	n/a	n/a	n/a	n/a	n/a	n/a	n/a	n/a	n/a	n/a	n/a	n/a	n/a	n/a	n/a	n/a	n/a	n/a	n/a	n/a	n/a	n/a	n/a	B4_05.jpg	500	1	473219	-1	473218	0	TrialProc1	B4HighSmallEDBlockList	2500	0	470719	0	470719	0	470719	2499	c	1139	471858	42.0
45	2.5	000_R01_VB_allProc	131	1	"<?xml version=""1.0""?>\n<Clock xmlns:dt=""urn:schemas-microsoft-com:datatypes""><Description dt:dt=""string"">E-Prime Primary Realtime Clock</Description><StartTime><Timestamp dt:dt=""int"">0</Timestamp><DateUtc dt:dt=""string"">2022-05-03T22:40:33Z</DateUtc></StartTime><FrequencyChanges><FrequencyChange><Frequency dt:dt=""r8"">3020371</Frequency><Timestamp dt:dt=""r8"">99254816021</Timestamp><Current dt:dt=""r8"">0</Current><DateUtc dt:dt=""string"">2022-05-03T22:40:33Z</DateUtc></FrequencyChange></FrequencyChanges></Clock>\n"	000_R01_VB_allProc-131-1	60.001	1.0.0.232	1	471161035	Professional	2.0.10.356	2.0.10.356	05-03-2022	n/a	18:40:33	2.0.10.252	3	0	0	428719	11	428719	4000	-999999	603984	0	588717	0	Run4Proc	3	1	3	RunList	2	HighSmallED	8000	1	476719	1	476719	0	476718	0	B4HighSmallEDBlockProc	n/a	n/a	n/a	n/a	n/a	n/a	n/a	n/a	n/a	2.0	1.0	2.0	n/a	n/a	n/a	Run4BlockList	6	n/a	n/a	n/a	n/a	n/a	n/a	n/a	n/a	n/a	n/a	n/a	n/a	n/a	n/a	n/a	n/a	n/a	n/a	n/a	n/a	n/a	n/a	n/a	n/a	6.0	1.0	6.0	n/a	n/a	n/a	n/a	n/a	n/a	n/a	n/a	n/a	n/a	n/a	n/a	n/a	n/a	n/a	n/a	n/a	n/a	n/a	n/a	n/a	n/a	n/a	n/a	n/a	n/a	n/a	n/a	n/a	n/a	n/a	n/a	n/a	n/a	n/a	n/a	n/a	n/a	n/a	n/a	n/a	n/a	n/a	n/a	n/a	n/a	n/a	n/a	n/a	n/a	n/a	n/a	n/a	n/a	n/a	n/a	n/a	n/a	n/a	n/a	n/a	n/a	n/a	B4_06.jpg	500	1	476219	0	476218	0	TrialProc1	B4HighSmallEDBlockList	2500	1	473719	1	473719	0	473718	2500	d	1036	474754	44.999
56	2.5	000_R01_VB_allProc	131	1	"<?xml version=""1.0""?>\n<Clock xmlns:dt=""urn:schemas-microsoft-com:datatypes""><Description dt:dt=""string"">E-Prime Primary Realtime Clock</Description><StartTime><Timestamp dt:dt=""int"">0</Timestamp><DateUtc dt:dt=""string"">2022-05-03T22:40:33Z</DateUtc></StartTime><FrequencyChanges><FrequencyChange><Frequency dt:dt=""r8"">3020371</Frequency><Timestamp dt:dt=""r8"">99254816021</Timestamp><Current dt:dt=""r8"">0</Current><DateUtc dt:dt=""string"">2022-05-03T22:40:33Z</DateUtc></FrequencyChange></FrequencyChanges></Clock>\n"	000_R01_VB_allProc-131-1	60.001	1.0.0.232	1	471161035	Professional	2.0.10.356	2.0.10.356	05-03-2022	n/a	18:40:33	2.0.10.252	3	0	0	428719	11	428719	4000	-999999	603984	0	588717	0	Run4Proc	3	1	3	RunList	3	LowLargeED	8000	0	502718	0	502718	0	502718	0	C4LowLargeEDBlockProc	n/a	n/a	n/a	n/a	n/a	n/a	n/a	n/a	n/a	3.0	1.0	3.0	n/a	n/a	n/a	Run4BlockList	1	n/a	n/a	n/a	n/a	n/a	n/a	n/a	n/a	n/a	n/a	n/a	n/a	n/a	n/a	n/a	n/a	n/a	n/a	n/a	n/a	n/a	n/a	n/a	n/a	n/a	n/a	n/a	n/a	n/a	n/a	n/a	n/a	n/a	n/a	n/a	n/a	n/a	n/a	n/a	1.0	1.0	1.0	n/a	n/a	n/a	n/a	n/a	n/a	n/a	n/a	n/a	n/a	n/a	n/a	n/a	n/a	n/a	n/a	n/a	n/a	n/a	n/a	n/a	n/a	n/a	n/a	n/a	n/a	n/a	n/a	n/a	n/a	n/a	n/a	n/a	n/a	n/a	n/a	n/a	n/a	n/a	n/a	n/a	n/a	n/a	n/a	n/a	n/a	n/a	n/a	C4_01.jpg	500	0	487218	0	487218	0	TrialProc1	C4LowLargeEDBlockList	2500	0	484718	0	484718	0	484718	2500	d	1396	486114	55.999
59	2.5	000_R01_VB_allProc	131	1	"<?xml version=""1.0""?>\n<Clock xmlns:dt=""urn:schemas-microsoft-com:datatypes""><Description dt:dt=""string"">E-Prime Primary Realtime Clock</Description><StartTime><Timestamp dt:dt=""int"">0</Timestamp><DateUtc dt:dt=""string"">2022-05-03T22:40:33Z</DateUtc></StartTime><FrequencyChanges><FrequencyChange><Frequency dt:dt=""r8"">3020371</Frequency><Timestamp dt:dt=""r8"">99254816021</Timestamp><Current dt:dt=""r8"">0</Current><DateUtc dt:dt=""string"">2022-05-03T22:40:33Z</DateUtc></FrequencyChange></FrequencyChanges></Clock>\n"	000_R01_VB_allProc-131-1	60.001	1.0.0.232	1	471161035	Professional	2.0.10.356	2.0.10.356	05-03-2022	n/a	18:40:33	2.0.10.252	3	0	0	428719	11	428719	4000	-999999	603984	0	588717	0	Run4Proc	3	1	3	RunList	3	LowLargeED	8000	0	502718	0	502718	0	502718	0	C4LowLargeEDBlockProc	n/a	n/a	n/a	n/a	n/a	n/a	n/a	n/a	n/a	3.0	1.0	3.0	n/a	n/a	n/a	Run4BlockList	2	n/a	n/a	n/a	n/a	n/a	n/a	n/a	n/a	n/a	n/a	n/a	n/a	n/a	n/a	n/a	n/a	n/a	n/a	n/a	n/a	n/a	n/a	n/a	n/a	n/a	n/a	n/a	n/a	n/a	n/a	n/a	n/a	n/a	n/a	n/a	n/a	n/a	n/a	n/a	2.0	1.0	2.0	n/a	n/a	n/a	n/a	n/a	n/a	n/a	n/a	n/a	n/a	n/a	n/a	n/a	n/a	n/a	n/a	n/a	n/a	n/a	n/a	n/a	n/a	n/a	n/a	n/a	n/a	n/a	n/a	n/a	n/a	n/a	n/a	n/a	n/a	n/a	n/a	n/a	n/a	n/a	n/a	n/a	n/a	n/a	n/a	n/a	n/a	n/a	n/a	C4_02.jpg	500	0	490218	0	490218	0	TrialProc1	C4LowLargeEDBlockList	2500	0	487718	0	487718	0	487718	2500	d	844	488562	58.999
62	2.5	000_R01_VB_allProc	131	1	"<?xml version=""1.0""?>\n<Clock xmlns:dt=""urn:schemas-microsoft-com:datatypes""><Description dt:dt=""string"">E-Prime Primary Realtime Clock</Description><StartTime><Timestamp dt:dt=""int"">0</Timestamp><DateUtc dt:dt=""string"">2022-05-03T22:40:33Z</DateUtc></StartTime><FrequencyChanges><FrequencyChange><Frequency dt:dt=""r8"">3020371</Frequency><Timestamp dt:dt=""r8"">99254816021</Timestamp><Current dt:dt=""r8"">0</Current><DateUtc dt:dt=""string"">2022-05-03T22:40:33Z</DateUtc></FrequencyChange></FrequencyChanges></Clock>\n"	000_R01_VB_allProc-131-1	60.001	1.0.0.232	1	471161035	Professional	2.0.10.356	2.0.10.356	05-03-2022	n/a	18:40:33	2.0.10.252	3	0	0	428719	11	428719	4000	-999999	603984	0	588717	0	Run4Proc	3	1	3	RunList	3	LowLargeED	8000	0	502718	0	502718	0	502718	0	C4LowLargeEDBlockProc	n/a	n/a	n/a	n/a	n/a	n/a	n/a	n/a	n/a	3.0	1.0	3.0	n/a	n/a	n/a	Run4BlockList	3	n/a	n/a	n/a	n/a	n/a	n/a	n/a	n/a	n/a	n/a	n/a	n/a	n/a	n/a	n/a	n/a	n/a	n/a	n/a	n/a	n/a	n/a	n/a	n/a	n/a	n/a	n/a	n/a	n/a	n/a	n/a	n/a	n/a	n/a	n/a	n/a	n/a	n/a	n/a	3.0	1.0	3.0	n/a	n/a	n/a	n/a	n/a	n/a	n/a	n/a	n/a	n/a	n/a	n/a	n/a	n/a	n/a	n/a	n/a	n/a	n/a	n/a	n/a	n/a	n/a	n/a	n/a	n/a	n/a	n/a	n/a	n/a	n/a	n/a	n/a	n/a	n/a	n/a	n/a	n/a	n/a	n/a	n/a	n/a	n/a	n/a	n/a	n/a	n/a	n/a	C4_03.jpg	500	0	493218	0	493218	0	TrialProc1	C4LowLargeEDBlockList	2500	0	490718	0	490718	0	490718	2500	c	1236	491954	61.999
65	2.5	000_R01_VB_allProc	131	1	"<?xml version=""1.0""?>\n<Clock xmlns:dt=""urn:schemas-microsoft-com:datatypes""><Description dt:dt=""string"">E-Prime Primary Realtime Clock</Description><StartTime><Timestamp dt:dt=""int"">0</Timestamp><DateUtc dt:dt=""string"">2022-05-03T22:40:33Z</DateUtc></StartTime><FrequencyChanges><FrequencyChange><Frequency dt:dt=""r8"">3020371</Frequency><Timestamp dt:dt=""r8"">99254816021</Timestamp><Current dt:dt=""r8"">0</Current><DateUtc dt:dt=""string"">2022-05-03T22:40:33Z</DateUtc></FrequencyChange></FrequencyChanges></Clock>\n"	000_R01_VB_allProc-131-1	60.001	1.0.0.232	1	471161035	Professional	2.0.10.356	2.0.10.356	05-03-2022	n/a	18:40:33	2.0.10.252	3	0	0	428719	11	428719	4000	-999999	603984	0	588717	0	Run4Proc	3	1	3	RunList	3	LowLargeED	8000	0	502718	0	502718	0	502718	0	C4LowLargeEDBlockProc	n/a	n/a	n/a	n/a	n/a	n/a	n/a	n/a	n/a	3.0	1.0	3.0	n/a	n/a	n/a	Run4BlockList	4	n/a	n/a	n/a	n/a	n/a	n/a	n/a	n/a	n/a	n/a	n/a	n/a	n/a	n/a	n/a	n/a	n/a	n/a	n/a	n/a	n/a	n/a	n/a	n/a	n/a	n/a	n/a	n/a	n/a	n/a	n/a	n/a	n/a	n/a	n/a	n/a	n/a	n/a	n/a	4.0	1.0	4.0	n/a	n/a	n/a	n/a	n/a	n/a	n/a	n/a	n/a	n/a	n/a	n/a	n/a	n/a	n/a	n/a	n/a	n/a	n/a	n/a	n/a	n/a	n/a	n/a	n/a	n/a	n/a	n/a	n/a	n/a	n/a	n/a	n/a	n/a	n/a	n/a	n/a	n/a	n/a	n/a	n/a	n/a	n/a	n/a	n/a	n/a	n/a	n/a	C4_04.jpg	500	0	496218	0	496218	0	TrialProc1	C4LowLargeEDBlockList	2500	0	493718	0	493718	0	493718	2500	c	1380	495098	64.999
68	2.5	000_R01_VB_allProc	131	1	"<?xml version=""1.0""?>\n<Clock xmlns:dt=""urn:schemas-microsoft-com:datatypes""><Description dt:dt=""string"">E-Prime Primary Realtime Clock</Description><StartTime><Timestamp dt:dt=""int"">0</Timestamp><DateUtc dt:dt=""string"">2022-05-03T22:40:33Z</DateUtc></StartTime><FrequencyChanges><FrequencyChange><Frequency dt:dt=""r8"">3020371</Frequency><Timestamp dt:dt=""r8"">99254816021</Timestamp><Current dt:dt=""r8"">0</Current><DateUtc dt:dt=""string"">2022-05-03T22:40:33Z</DateUtc></FrequencyChange></FrequencyChanges></Clock>\n"	000_R01_VB_allProc-131-1	60.001	1.0.0.232	1	471161035	Professional	2.0.10.356	2.0.10.356	05-03-2022	n/a	18:40:33	2.0.10.252	3	0	0	428719	11	428719	4000	-999999	603984	0	588717	0	Run4Proc	3	1	3	RunList	3	LowLargeED	8000	0	502718	0	502718	0	502718	0	C4LowLargeEDBlockProc	n/a	n/a	n/a	n/a	n/a	n/a	n/a	n/a	n/a	3.0	1.0	3.0	n/a	n/a	n/a	Run4BlockList	5	n/a	n/a	n/a	n/a	n/a	n/a	n/a	n/a	n/a	n/a	n/a	n/a	n/a	n/a	n/a	n/a	n/a	n/a	n/a	n/a	n/a	n/a	n/a	n/a	n/a	n/a	n/a	n/a	n/a	n/a	n/a	n/a	n/a	n/a	n/a	n/a	n/a	n/a	n/a	5.0	1.0	5.0	n/a	n/a	n/a	n/a	n/a	n/a	n/a	n/a	n/a	n/a	n/a	n/a	n/a	n/a	n/a	n/a	n/a	n/a	n/a	n/a	n/a	n/a	n/a	n/a	n/a	n/a	n/a	n/a	n/a	n/a	n/a	n/a	n/a	n/a	n/a	n/a	n/a	n/a	n/a	n/a	n/a	n/a	n/a	n/a	n/a	n/a	n/a	n/a	C4_05.jpg	500	0	499218	0	499218	0	TrialProc1	C4LowLargeEDBlockList	2500	0	496718	0	496718	0	496718	2500	d	1268	497986	67.999
71	2.5	000_R01_VB_allProc	131	1	"<?xml version=""1.0""?>\n<Clock xmlns:dt=""urn:schemas-microsoft-com:datatypes""><Description dt:dt=""string"">E-Prime Primary Realtime Clock</Description><StartTime><Timestamp dt:dt=""int"">0</Timestamp><DateUtc dt:dt=""string"">2022-05-03T22:40:33Z</DateUtc></StartTime><FrequencyChanges><FrequencyChange><Frequency dt:dt=""r8"">3020371</Frequency><Timestamp dt:dt=""r8"">99254816021</Timestamp><Current dt:dt=""r8"">0</Current><DateUtc dt:dt=""string"">2022-05-03T22:40:33Z</DateUtc></FrequencyChange></FrequencyChanges></Clock>\n"	000_R01_VB_allProc-131-1	60.001	1.0.0.232	1	471161035	Professional	2.0.10.356	2.0.10.356	05-03-2022	n/a	18:40:33	2.0.10.252	3	0	0	428719	11	428719	4000	-999999	603984	0	588717	0	Run4Proc	3	1	3	RunList	3	LowLargeED	8000	0	502718	0	502718	0	502718	0	C4LowLargeEDBlockProc	n/a	n/a	n/a	n/a	n/a	n/a	n/a	n/a	n/a	3.0	1.0	3.0	n/a	n/a	n/a	Run4BlockList	6	n/a	n/a	n/a	n/a	n/a	n/a	n/a	n/a	n/a	n/a	n/a	n/a	n/a	n/a	n/a	n/a	n/a	n/a	n/a	n/a	n/a	n/a	n/a	n/a	n/a	n/a	n/a	n/a	n/a	n/a	n/a	n/a	n/a	n/a	n/a	n/a	n/a	n/a	n/a	6.0	1.0	6.0	n/a	n/a	n/a	n/a	n/a	n/a	n/a	n/a	n/a	n/a	n/a	n/a	n/a	n/a	n/a	n/a	n/a	n/a	n/a	n/a	n/a	n/a	n/a	n/a	n/a	n/a	n/a	n/a	n/a	n/a	n/a	n/a	n/a	n/a	n/a	n/a	n/a	n/a	n/a	n/a	n/a	n/a	n/a	n/a	n/a	n/a	n/a	n/a	C4_06.jpg	500	0	502218	0	502218	0	TrialProc1	C4LowLargeEDBlockList	2500	0	499718	0	499718	0	499718	2500	c	996	500714	70.999
82	2.5	000_R01_VB_allProc	131	1	"<?xml version=""1.0""?>\n<Clock xmlns:dt=""urn:schemas-microsoft-com:datatypes""><Description dt:dt=""string"">E-Prime Primary Realtime Clock</Description><StartTime><Timestamp dt:dt=""int"">0</Timestamp><DateUtc dt:dt=""string"">2022-05-03T22:40:33Z</DateUtc></StartTime><FrequencyChanges><FrequencyChange><Frequency dt:dt=""r8"">3020371</Frequency><Timestamp dt:dt=""r8"">99254816021</Timestamp><Current dt:dt=""r8"">0</Current><DateUtc dt:dt=""string"">2022-05-03T22:40:33Z</DateUtc></FrequencyChange></FrequencyChanges></Clock>\n"	000_R01_VB_allProc-131-1	60.001	1.0.0.232	1	471161035	Professional	2.0.10.356	2.0.10.356	05-03-2022	n/a	18:40:33	2.0.10.252	3	0	0	428719	11	428719	4000	-999999	603984	0	588717	0	Run4Proc	3	1	3	RunList	4	OfficeLarge	8000	0	528718	0	528718	0	528718	0	E4OfficeLargeBlockProc	n/a	n/a	n/a	n/a	n/a	n/a	n/a	n/a	n/a	4.0	1.0	4.0	n/a	n/a	n/a	Run4BlockList	1	n/a	n/a	n/a	n/a	n/a	n/a	n/a	n/a	n/a	n/a	n/a	n/a	n/a	n/a	n/a	n/a	n/a	n/a	n/a	n/a	n/a	n/a	n/a	n/a	n/a	n/a	n/a	n/a	n/a	n/a	n/a	n/a	n/a	n/a	n/a	n/a	n/a	n/a	n/a	n/a	n/a	n/a	n/a	n/a	n/a	n/a	n/a	n/a	n/a	n/a	n/a	n/a	n/a	n/a	n/a	n/a	n/a	n/a	n/a	n/a	n/a	n/a	n/a	n/a	n/a	n/a	n/a	n/a	n/a	1.0	1.0	1.0	n/a	n/a	n/a	n/a	n/a	n/a	n/a	n/a	n/a	n/a	n/a	n/a	n/a	n/a	n/a	n/a	n/a	n/a	E4_01.jpg	500	0	513218	0	513218	0	TrialProc1	E4OfficeLargeBlockList	2500	0	510718	0	510718	0	510718	2500	c	1316	512034	81.999
85	2.5	000_R01_VB_allProc	131	1	"<?xml version=""1.0""?>\n<Clock xmlns:dt=""urn:schemas-microsoft-com:datatypes""><Description dt:dt=""string"">E-Prime Primary Realtime Clock</Description><StartTime><Timestamp dt:dt=""int"">0</Timestamp><DateUtc dt:dt=""string"">2022-05-03T22:40:33Z</DateUtc></StartTime><FrequencyChanges><FrequencyChange><Frequency dt:dt=""r8"">3020371</Frequency><Timestamp dt:dt=""r8"">99254816021</Timestamp><Current dt:dt=""r8"">0</Current><DateUtc dt:dt=""string"">2022-05-03T22:40:33Z</DateUtc></FrequencyChange></FrequencyChanges></Clock>\n"	000_R01_VB_allProc-131-1	60.001	1.0.0.232	1	471161035	Professional	2.0.10.356	2.0.10.356	05-03-2022	n/a	18:40:33	2.0.10.252	3	0	0	428719	11	428719	4000	-999999	603984	0	588717	0	Run4Proc	3	1	3	RunList	4	OfficeLarge	8000	0	528718	0	528718	0	528718	0	E4OfficeLargeBlockProc	n/a	n/a	n/a	n/a	n/a	n/a	n/a	n/a	n/a	4.0	1.0	4.0	n/a	n/a	n/a	Run4BlockList	2	n/a	n/a	n/a	n/a	n/a	n/a	n/a	n/a	n/a	n/a	n/a	n/a	n/a	n/a	n/a	n/a	n/a	n/a	n/a	n/a	n/a	n/a	n/a	n/a	n/a	n/a	n/a	n/a	n/a	n/a	n/a	n/a	n/a	n/a	n/a	n/a	n/a	n/a	n/a	n/a	n/a	n/a	n/a	n/a	n/a	n/a	n/a	n/a	n/a	n/a	n/a	n/a	n/a	n/a	n/a	n/a	n/a	n/a	n/a	n/a	n/a	n/a	n/a	n/a	n/a	n/a	n/a	n/a	n/a	2.0	1.0	2.0	n/a	n/a	n/a	n/a	n/a	n/a	n/a	n/a	n/a	n/a	n/a	n/a	n/a	n/a	n/a	n/a	n/a	n/a	E4_02.jpg	500	0	516218	0	516218	0	TrialProc1	E4OfficeLargeBlockList	2500	0	513718	0	513718	0	513718	2500	c	788	514506	84.999
88	2.5	000_R01_VB_allProc	131	1	"<?xml version=""1.0""?>\n<Clock xmlns:dt=""urn:schemas-microsoft-com:datatypes""><Description dt:dt=""string"">E-Prime Primary Realtime Clock</Description><StartTime><Timestamp dt:dt=""int"">0</Timestamp><DateUtc dt:dt=""string"">2022-05-03T22:40:33Z</DateUtc></StartTime><FrequencyChanges><FrequencyChange><Frequency dt:dt=""r8"">3020371</Frequency><Timestamp dt:dt=""r8"">99254816021</Timestamp><Current dt:dt=""r8"">0</Current><DateUtc dt:dt=""string"">2022-05-03T22:40:33Z</DateUtc></FrequencyChange></FrequencyChanges></Clock>\n"	000_R01_VB_allProc-131-1	60.001	1.0.0.232	1	471161035	Professional	2.0.10.356	2.0.10.356	05-03-2022	n/a	18:40:33	2.0.10.252	3	0	0	428719	11	428719	4000	-999999	603984	0	588717	0	Run4Proc	3	1	3	RunList	4	OfficeLarge	8000	0	528718	0	528718	0	528718	0	E4OfficeLargeBlockProc	n/a	n/a	n/a	n/a	n/a	n/a	n/a	n/a	n/a	4.0	1.0	4.0	n/a	n/a	n/a	Run4BlockList	3	n/a	n/a	n/a	n/a	n/a	n/a	n/a	n/a	n/a	n/a	n/a	n/a	n/a	n/a	n/a	n/a	n/a	n/a	n/a	n/a	n/a	n/a	n/a	n/a	n/a	n/a	n/a	n/a	n/a	n/a	n/a	n/a	n/a	n/a	n/a	n/a	n/a	n/a	n/a	n/a	n/a	n/a	n/a	n/a	n/a	n/a	n/a	n/a	n/a	n/a	n/a	n/a	n/a	n/a	n/a	n/a	n/a	n/a	n/a	n/a	n/a	n/a	n/a	n/a	n/a	n/a	n/a	n/a	n/a	3.0	1.0	3.0	n/a	n/a	n/a	n/a	n/a	n/a	n/a	n/a	n/a	n/a	n/a	n/a	n/a	n/a	n/a	n/a	n/a	n/a	E4_03.jpg	500	0	519218	0	519218	0	TrialProc1	E4OfficeLargeBlockList	2500	0	516718	0	516718	0	516718	2500	c	972	517690	87.999
91	2.5	000_R01_VB_allProc	131	1	"<?xml version=""1.0""?>\n<Clock xmlns:dt=""urn:schemas-microsoft-com:datatypes""><Description dt:dt=""string"">E-Prime Primary Realtime Clock</Description><StartTime><Timestamp dt:dt=""int"">0</Timestamp><DateUtc dt:dt=""string"">2022-05-03T22:40:33Z</DateUtc></StartTime><FrequencyChanges><FrequencyChange><Frequency dt:dt=""r8"">3020371</Frequency><Timestamp dt:dt=""r8"">99254816021</Timestamp><Current dt:dt=""r8"">0</Current><DateUtc dt:dt=""string"">2022-05-03T22:40:33Z</DateUtc></FrequencyChange></FrequencyChanges></Clock>\n"	000_R01_VB_allProc-131-1	60.001	1.0.0.232	1	471161035	Professional	2.0.10.356	2.0.10.356	05-03-2022	n/a	18:40:33	2.0.10.252	3	0	0	428719	11	428719	4000	-999999	603984	0	588717	0	Run4Proc	3	1	3	RunList	4	OfficeLarge	8000	0	528718	0	528718	0	528718	0	E4OfficeLargeBlockProc	n/a	n/a	n/a	n/a	n/a	n/a	n/a	n/a	n/a	4.0	1.0	4.0	n/a	n/a	n/a	Run4BlockList	4	n/a	n/a	n/a	n/a	n/a	n/a	n/a	n/a	n/a	n/a	n/a	n/a	n/a	n/a	n/a	n/a	n/a	n/a	n/a	n/a	n/a	n/a	n/a	n/a	n/a	n/a	n/a	n/a	n/a	n/a	n/a	n/a	n/a	n/a	n/a	n/a	n/a	n/a	n/a	n/a	n/a	n/a	n/a	n/a	n/a	n/a	n/a	n/a	n/a	n/a	n/a	n/a	n/a	n/a	n/a	n/a	n/a	n/a	n/a	n/a	n/a	n/a	n/a	n/a	n/a	n/a	n/a	n/a	n/a	4.0	1.0	4.0	n/a	n/a	n/a	n/a	n/a	n/a	n/a	n/a	n/a	n/a	n/a	n/a	n/a	n/a	n/a	n/a	n/a	n/a	E4_04.jpg	500	0	522218	0	522218	0	TrialProc1	E4OfficeLargeBlockList	2500	0	519718	0	519718	0	519718	2500	c	1284	521002	90.999
94	2.5	000_R01_VB_allProc	131	1	"<?xml version=""1.0""?>\n<Clock xmlns:dt=""urn:schemas-microsoft-com:datatypes""><Description dt:dt=""string"">E-Prime Primary Realtime Clock</Description><StartTime><Timestamp dt:dt=""int"">0</Timestamp><DateUtc dt:dt=""string"">2022-05-03T22:40:33Z</DateUtc></StartTime><FrequencyChanges><FrequencyChange><Frequency dt:dt=""r8"">3020371</Frequency><Timestamp dt:dt=""r8"">99254816021</Timestamp><Current dt:dt=""r8"">0</Current><DateUtc dt:dt=""string"">2022-05-03T22:40:33Z</DateUtc></FrequencyChange></FrequencyChanges></Clock>\n"	000_R01_VB_allProc-131-1	60.001	1.0.0.232	1	471161035	Professional	2.0.10.356	2.0.10.356	05-03-2022	n/a	18:40:33	2.0.10.252	3	0	0	428719	11	428719	4000	-999999	603984	0	588717	0	Run4Proc	3	1	3	RunList	4	OfficeLarge	8000	0	528718	0	528718	0	528718	0	E4OfficeLargeBlockProc	n/a	n/a	n/a	n/a	n/a	n/a	n/a	n/a	n/a	4.0	1.0	4.0	n/a	n/a	n/a	Run4BlockList	5	n/a	n/a	n/a	n/a	n/a	n/a	n/a	n/a	n/a	n/a	n/a	n/a	n/a	n/a	n/a	n/a	n/a	n/a	n/a	n/a	n/a	n/a	n/a	n/a	n/a	n/a	n/a	n/a	n/a	n/a	n/a	n/a	n/a	n/a	n/a	n/a	n/a	n/a	n/a	n/a	n/a	n/a	n/a	n/a	n/a	n/a	n/a	n/a	n/a	n/a	n/a	n/a	n/a	n/a	n/a	n/a	n/a	n/a	n/a	n/a	n/a	n/a	n/a	n/a	n/a	n/a	n/a	n/a	n/a	5.0	1.0	5.0	n/a	n/a	n/a	n/a	n/a	n/a	n/a	n/a	n/a	n/a	n/a	n/a	n/a	n/a	n/a	n/a	n/a	n/a	E4_05.jpg	500	0	525218	0	525218	0	TrialProc1	E4OfficeLargeBlockList	2500	0	522718	0	522718	0	522718	2500	c	2075	524793	93.999
97	2.5	000_R01_VB_allProc	131	1	"<?xml version=""1.0""?>\n<Clock xmlns:dt=""urn:schemas-microsoft-com:datatypes""><Description dt:dt=""string"">E-Prime Primary Realtime Clock</Description><StartTime><Timestamp dt:dt=""int"">0</Timestamp><DateUtc dt:dt=""string"">2022-05-03T22:40:33Z</DateUtc></StartTime><FrequencyChanges><FrequencyChange><Frequency dt:dt=""r8"">3020371</Frequency><Timestamp dt:dt=""r8"">99254816021</Timestamp><Current dt:dt=""r8"">0</Current><DateUtc dt:dt=""string"">2022-05-03T22:40:33Z</DateUtc></FrequencyChange></FrequencyChanges></Clock>\n"	000_R01_VB_allProc-131-1	60.001	1.0.0.232	1	471161035	Professional	2.0.10.356	2.0.10.356	05-03-2022	n/a	18:40:33	2.0.10.252	3	0	0	428719	11	428719	4000	-999999	603984	0	588717	0	Run4Proc	3	1	3	RunList	4	OfficeLarge	8000	0	528718	0	528718	0	528718	0	E4OfficeLargeBlockProc	n/a	n/a	n/a	n/a	n/a	n/a	n/a	n/a	n/a	4.0	1.0	4.0	n/a	n/a	n/a	Run4BlockList	6	n/a	n/a	n/a	n/a	n/a	n/a	n/a	n/a	n/a	n/a	n/a	n/a	n/a	n/a	n/a	n/a	n/a	n/a	n/a	n/a	n/a	n/a	n/a	n/a	n/a	n/a	n/a	n/a	n/a	n/a	n/a	n/a	n/a	n/a	n/a	n/a	n/a	n/a	n/a	n/a	n/a	n/a	n/a	n/a	n/a	n/a	n/a	n/a	n/a	n/a	n/a	n/a	n/a	n/a	n/a	n/a	n/a	n/a	n/a	n/a	n/a	n/a	n/a	n/a	n/a	n/a	n/a	n/a	n/a	6.0	1.0	6.0	n/a	n/a	n/a	n/a	n/a	n/a	n/a	n/a	n/a	n/a	n/a	n/a	n/a	n/a	n/a	n/a	n/a	n/a	E4_06.jpg	500	0	528218	0	528218	0	TrialProc1	E4OfficeLargeBlockList	2500	0	525718	0	525718	0	525718	2500	c	1187	526905	96.999
108	2.5	000_R01_VB_allProc	131	1	"<?xml version=""1.0""?>\n<Clock xmlns:dt=""urn:schemas-microsoft-com:datatypes""><Description dt:dt=""string"">E-Prime Primary Realtime Clock</Description><StartTime><Timestamp dt:dt=""int"">0</Timestamp><DateUtc dt:dt=""string"">2022-05-03T22:40:33Z</DateUtc></StartTime><FrequencyChanges><FrequencyChange><Frequency dt:dt=""r8"">3020371</Frequency><Timestamp dt:dt=""r8"">99254816021</Timestamp><Current dt:dt=""r8"">0</Current><DateUtc dt:dt=""string"">2022-05-03T22:40:33Z</DateUtc></FrequencyChange></FrequencyChanges></Clock>\n"	000_R01_VB_allProc-131-1	60.001	1.0.0.232	1	471161035	Professional	2.0.10.356	2.0.10.356	05-03-2022	n/a	18:40:33	2.0.10.252	3	0	0	428719	11	428719	4000	-999999	603984	0	588717	0	Run4Proc	3	1	3	RunList	5	LowSmallED	8000	0	554718	0	554718	0	554718	0	D4LowSmallEDBlockProc	n/a	n/a	n/a	n/a	n/a	n/a	n/a	n/a	n/a	5.0	1.0	5.0	n/a	n/a	n/a	Run4BlockList	1	n/a	n/a	n/a	n/a	n/a	n/a	n/a	n/a	n/a	n/a	n/a	n/a	n/a	n/a	n/a	n/a	n/a	n/a	n/a	n/a	n/a	n/a	n/a	n/a	n/a	n/a	n/a	n/a	n/a	n/a	n/a	n/a	n/a	n/a	n/a	n/a	n/a	n/a	n/a	n/a	n/a	n/a	n/a	n/a	n/a	n/a	n/a	n/a	n/a	n/a	n/a	n/a	n/a	n/a	1.0	1.0	1.0	n/a	n/a	n/a	n/a	n/a	n/a	n/a	n/a	n/a	n/a	n/a	n/a	n/a	n/a	n/a	n/a	n/a	n/a	n/a	n/a	n/a	n/a	n/a	n/a	n/a	n/a	n/a	n/a	n/a	n/a	n/a	n/a	n/a	D4_01.jpg	500	0	539218	0	539218	0	TrialProc1	D4LowSmallEDBlockList	2500	0	536718	0	536718	0	536718	2500	c	1107	537825	107.999
111	2.5	000_R01_VB_allProc	131	1	"<?xml version=""1.0""?>\n<Clock xmlns:dt=""urn:schemas-microsoft-com:datatypes""><Description dt:dt=""string"">E-Prime Primary Realtime Clock</Description><StartTime><Timestamp dt:dt=""int"">0</Timestamp><DateUtc dt:dt=""string"">2022-05-03T22:40:33Z</DateUtc></StartTime><FrequencyChanges><FrequencyChange><Frequency dt:dt=""r8"">3020371</Frequency><Timestamp dt:dt=""r8"">99254816021</Timestamp><Current dt:dt=""r8"">0</Current><DateUtc dt:dt=""string"">2022-05-03T22:40:33Z</DateUtc></FrequencyChange></FrequencyChanges></Clock>\n"	000_R01_VB_allProc-131-1	60.001	1.0.0.232	1	471161035	Professional	2.0.10.356	2.0.10.356	05-03-2022	n/a	18:40:33	2.0.10.252	3	0	0	428719	11	428719	4000	-999999	603984	0	588717	0	Run4Proc	3	1	3	RunList	5	LowSmallED	8000	0	554718	0	554718	0	554718	0	D4LowSmallEDBlockProc	n/a	n/a	n/a	n/a	n/a	n/a	n/a	n/a	n/a	5.0	1.0	5.0	n/a	n/a	n/a	Run4BlockList	2	n/a	n/a	n/a	n/a	n/a	n/a	n/a	n/a	n/a	n/a	n/a	n/a	n/a	n/a	n/a	n/a	n/a	n/a	n/a	n/a	n/a	n/a	n/a	n/a	n/a	n/a	n/a	n/a	n/a	n/a	n/a	n/a	n/a	n/a	n/a	n/a	n/a	n/a	n/a	n/a	n/a	n/a	n/a	n/a	n/a	n/a	n/a	n/a	n/a	n/a	n/a	n/a	n/a	n/a	2.0	1.0	2.0	n/a	n/a	n/a	n/a	n/a	n/a	n/a	n/a	n/a	n/a	n/a	n/a	n/a	n/a	n/a	n/a	n/a	n/a	n/a	n/a	n/a	n/a	n/a	n/a	n/a	n/a	n/a	n/a	n/a	n/a	n/a	n/a	n/a	D4_02.jpg	500	0	542218	0	542218	0	TrialProc1	D4LowSmallEDBlockList	2500	0	539718	0	539718	0	539718	2500	c	1275	540993	110.999
114	2.5	000_R01_VB_allProc	131	1	"<?xml version=""1.0""?>\n<Clock xmlns:dt=""urn:schemas-microsoft-com:datatypes""><Description dt:dt=""string"">E-Prime Primary Realtime Clock</Description><StartTime><Timestamp dt:dt=""int"">0</Timestamp><DateUtc dt:dt=""string"">2022-05-03T22:40:33Z</DateUtc></StartTime><FrequencyChanges><FrequencyChange><Frequency dt:dt=""r8"">3020371</Frequency><Timestamp dt:dt=""r8"">99254816021</Timestamp><Current dt:dt=""r8"">0</Current><DateUtc dt:dt=""string"">2022-05-03T22:40:33Z</DateUtc></FrequencyChange></FrequencyChanges></Clock>\n"	000_R01_VB_allProc-131-1	60.001	1.0.0.232	1	471161035	Professional	2.0.10.356	2.0.10.356	05-03-2022	n/a	18:40:33	2.0.10.252	3	0	0	428719	11	428719	4000	-999999	603984	0	588717	0	Run4Proc	3	1	3	RunList	5	LowSmallED	8000	0	554718	0	554718	0	554718	0	D4LowSmallEDBlockProc	n/a	n/a	n/a	n/a	n/a	n/a	n/a	n/a	n/a	5.0	1.0	5.0	n/a	n/a	n/a	Run4BlockList	3	n/a	n/a	n/a	n/a	n/a	n/a	n/a	n/a	n/a	n/a	n/a	n/a	n/a	n/a	n/a	n/a	n/a	n/a	n/a	n/a	n/a	n/a	n/a	n/a	n/a	n/a	n/a	n/a	n/a	n/a	n/a	n/a	n/a	n/a	n/a	n/a	n/a	n/a	n/a	n/a	n/a	n/a	n/a	n/a	n/a	n/a	n/a	n/a	n/a	n/a	n/a	n/a	n/a	n/a	3.0	1.0	3.0	n/a	n/a	n/a	n/a	n/a	n/a	n/a	n/a	n/a	n/a	n/a	n/a	n/a	n/a	n/a	n/a	n/a	n/a	n/a	n/a	n/a	n/a	n/a	n/a	n/a	n/a	n/a	n/a	n/a	n/a	n/a	n/a	n/a	D4_03.jpg	500	0	545218	0	545218	0	TrialProc1	D4LowSmallEDBlockList	2500	0	542718	0	542718	0	542718	2500	c	811	543529	113.999
117	2.5	000_R01_VB_allProc	131	1	"<?xml version=""1.0""?>\n<Clock xmlns:dt=""urn:schemas-microsoft-com:datatypes""><Description dt:dt=""string"">E-Prime Primary Realtime Clock</Description><StartTime><Timestamp dt:dt=""int"">0</Timestamp><DateUtc dt:dt=""string"">2022-05-03T22:40:33Z</DateUtc></StartTime><FrequencyChanges><FrequencyChange><Frequency dt:dt=""r8"">3020371</Frequency><Timestamp dt:dt=""r8"">99254816021</Timestamp><Current dt:dt=""r8"">0</Current><DateUtc dt:dt=""string"">2022-05-03T22:40:33Z</DateUtc></FrequencyChange></FrequencyChanges></Clock>\n"	000_R01_VB_allProc-131-1	60.001	1.0.0.232	1	471161035	Professional	2.0.10.356	2.0.10.356	05-03-2022	n/a	18:40:33	2.0.10.252	3	0	0	428719	11	428719	4000	-999999	603984	0	588717	0	Run4Proc	3	1	3	RunList	5	LowSmallED	8000	0	554718	0	554718	0	554718	0	D4LowSmallEDBlockProc	n/a	n/a	n/a	n/a	n/a	n/a	n/a	n/a	n/a	5.0	1.0	5.0	n/a	n/a	n/a	Run4BlockList	4	n/a	n/a	n/a	n/a	n/a	n/a	n/a	n/a	n/a	n/a	n/a	n/a	n/a	n/a	n/a	n/a	n/a	n/a	n/a	n/a	n/a	n/a	n/a	n/a	n/a	n/a	n/a	n/a	n/a	n/a	n/a	n/a	n/a	n/a	n/a	n/a	n/a	n/a	n/a	n/a	n/a	n/a	n/a	n/a	n/a	n/a	n/a	n/a	n/a	n/a	n/a	n/a	n/a	n/a	4.0	1.0	4.0	n/a	n/a	n/a	n/a	n/a	n/a	n/a	n/a	n/a	n/a	n/a	n/a	n/a	n/a	n/a	n/a	n/a	n/a	n/a	n/a	n/a	n/a	n/a	n/a	n/a	n/a	n/a	n/a	n/a	n/a	n/a	n/a	n/a	D4_04.jpg	500	0	548218	0	548218	0	TrialProc1	D4LowSmallEDBlockList	2500	0	545718	0	545718	0	545718	2500	d	835	546553	116.999
120	2.5	000_R01_VB_allProc	131	1	"<?xml version=""1.0""?>\n<Clock xmlns:dt=""urn:schemas-microsoft-com:datatypes""><Description dt:dt=""string"">E-Prime Primary Realtime Clock</Description><StartTime><Timestamp dt:dt=""int"">0</Timestamp><DateUtc dt:dt=""string"">2022-05-03T22:40:33Z</DateUtc></StartTime><FrequencyChanges><FrequencyChange><Frequency dt:dt=""r8"">3020371</Frequency><Timestamp dt:dt=""r8"">99254816021</Timestamp><Current dt:dt=""r8"">0</Current><DateUtc dt:dt=""string"">2022-05-03T22:40:33Z</DateUtc></FrequencyChange></FrequencyChanges></Clock>\n"	000_R01_VB_allProc-131-1	60.001	1.0.0.232	1	471161035	Professional	2.0.10.356	2.0.10.356	05-03-2022	n/a	18:40:33	2.0.10.252	3	0	0	428719	11	428719	4000	-999999	603984	0	588717	0	Run4Proc	3	1	3	RunList	5	LowSmallED	8000	0	554718	0	554718	0	554718	0	D4LowSmallEDBlockProc	n/a	n/a	n/a	n/a	n/a	n/a	n/a	n/a	n/a	5.0	1.0	5.0	n/a	n/a	n/a	Run4BlockList	5	n/a	n/a	n/a	n/a	n/a	n/a	n/a	n/a	n/a	n/a	n/a	n/a	n/a	n/a	n/a	n/a	n/a	n/a	n/a	n/a	n/a	n/a	n/a	n/a	n/a	n/a	n/a	n/a	n/a	n/a	n/a	n/a	n/a	n/a	n/a	n/a	n/a	n/a	n/a	n/a	n/a	n/a	n/a	n/a	n/a	n/a	n/a	n/a	n/a	n/a	n/a	n/a	n/a	n/a	5.0	1.0	5.0	n/a	n/a	n/a	n/a	n/a	n/a	n/a	n/a	n/a	n/a	n/a	n/a	n/a	n/a	n/a	n/a	n/a	n/a	n/a	n/a	n/a	n/a	n/a	n/a	n/a	n/a	n/a	n/a	n/a	n/a	n/a	n/a	n/a	D4_05.jpg	500	0	551218	0	551218	0	TrialProc1	D4LowSmallEDBlockList	2500	0	548718	0	548718	0	548718	2500	c	1059	549777	119.999
123	2.5	000_R01_VB_allProc	131	1	"<?xml version=""1.0""?>\n<Clock xmlns:dt=""urn:schemas-microsoft-com:datatypes""><Description dt:dt=""string"">E-Prime Primary Realtime Clock</Description><StartTime><Timestamp dt:dt=""int"">0</Timestamp><DateUtc dt:dt=""string"">2022-05-03T22:40:33Z</DateUtc></StartTime><FrequencyChanges><FrequencyChange><Frequency dt:dt=""r8"">3020371</Frequency><Timestamp dt:dt=""r8"">99254816021</Timestamp><Current dt:dt=""r8"">0</Current><DateUtc dt:dt=""string"">2022-05-03T22:40:33Z</DateUtc></FrequencyChange></FrequencyChanges></Clock>\n"	000_R01_VB_allProc-131-1	60.001	1.0.0.232	1	471161035	Professional	2.0.10.356	2.0.10.356	05-03-2022	n/a	18:40:33	2.0.10.252	3	0	0	428719	11	428719	4000	-999999	603984	0	588717	0	Run4Proc	3	1	3	RunList	5	LowSmallED	8000	0	554718	0	554718	0	554718	0	D4LowSmallEDBlockProc	n/a	n/a	n/a	n/a	n/a	n/a	n/a	n/a	n/a	5.0	1.0	5.0	n/a	n/a	n/a	Run4BlockList	6	n/a	n/a	n/a	n/a	n/a	n/a	n/a	n/a	n/a	n/a	n/a	n/a	n/a	n/a	n/a	n/a	n/a	n/a	n/a	n/a	n/a	n/a	n/a	n/a	n/a	n/a	n/a	n/a	n/a	n/a	n/a	n/a	n/a	n/a	n/a	n/a	n/a	n/a	n/a	n/a	n/a	n/a	n/a	n/a	n/a	n/a	n/a	n/a	n/a	n/a	n/a	n/a	n/a	n/a	6.0	1.0	6.0	n/a	n/a	n/a	n/a	n/a	n/a	n/a	n/a	n/a	n/a	n/a	n/a	n/a	n/a	n/a	n/a	n/a	n/a	n/a	n/a	n/a	n/a	n/a	n/a	n/a	n/a	n/a	n/a	n/a	n/a	n/a	n/a	n/a	D4_06.jpg	500	0	554218	0	554218	0	TrialProc1	D4LowSmallEDBlockList	2500	0	551718	0	551718	0	551718	2500	c	1075	552793	122.999
134	2.5	000_R01_VB_allProc	131	1	"<?xml version=""1.0""?>\n<Clock xmlns:dt=""urn:schemas-microsoft-com:datatypes""><Description dt:dt=""string"">E-Prime Primary Realtime Clock</Description><StartTime><Timestamp dt:dt=""int"">0</Timestamp><DateUtc dt:dt=""string"">2022-05-03T22:40:33Z</DateUtc></StartTime><FrequencyChanges><FrequencyChange><Frequency dt:dt=""r8"">3020371</Frequency><Timestamp dt:dt=""r8"">99254816021</Timestamp><Current dt:dt=""r8"">0</Current><DateUtc dt:dt=""string"">2022-05-03T22:40:33Z</DateUtc></FrequencyChange></FrequencyChanges></Clock>\n"	000_R01_VB_allProc-131-1	60.001	1.0.0.232	1	471161035	Professional	2.0.10.356	2.0.10.356	05-03-2022	n/a	18:40:33	2.0.10.252	3	0	0	428719	11	428719	4000	-999999	603984	0	588717	0	Run4Proc	3	1	3	RunList	6	HighLargeED	8000	1	580718	1	580718	0	580717	0	A4HighLargeEDBlockProc	n/a	n/a	n/a	n/a	n/a	n/a	n/a	n/a	n/a	6.0	1.0	6.0	n/a	n/a	n/a	Run4BlockList	1	n/a	n/a	n/a	n/a	n/a	n/a	n/a	n/a	n/a	1.0	1.0	1.0	n/a	n/a	n/a	n/a	n/a	n/a	n/a	n/a	n/a	n/a	n/a	n/a	n/a	n/a	n/a	n/a	n/a	n/a	n/a	n/a	n/a	n/a	n/a	n/a	n/a	n/a	n/a	n/a	n/a	n/a	n/a	n/a	n/a	n/a	n/a	n/a	n/a	n/a	n/a	n/a	n/a	n/a	n/a	n/a	n/a	n/a	n/a	n/a	n/a	n/a	n/a	n/a	n/a	n/a	n/a	n/a	n/a	n/a	n/a	n/a	n/a	n/a	n/a	n/a	n/a	n/a	n/a	n/a	n/a	n/a	n/a	n/a	n/a	n/a	n/a	n/a	n/a	n/a	A4_01.jpg	500	0	565218	0	565218	0	TrialProc1	A4HighLargeEDBlockList	2500	0	562718	0	562718	0	562718	2500	c	1691	564409	133.999
137	2.5	000_R01_VB_allProc	131	1	"<?xml version=""1.0""?>\n<Clock xmlns:dt=""urn:schemas-microsoft-com:datatypes""><Description dt:dt=""string"">E-Prime Primary Realtime Clock</Description><StartTime><Timestamp dt:dt=""int"">0</Timestamp><DateUtc dt:dt=""string"">2022-05-03T22:40:33Z</DateUtc></StartTime><FrequencyChanges><FrequencyChange><Frequency dt:dt=""r8"">3020371</Frequency><Timestamp dt:dt=""r8"">99254816021</Timestamp><Current dt:dt=""r8"">0</Current><DateUtc dt:dt=""string"">2022-05-03T22:40:33Z</DateUtc></FrequencyChange></FrequencyChanges></Clock>\n"	000_R01_VB_allProc-131-1	60.001	1.0.0.232	1	471161035	Professional	2.0.10.356	2.0.10.356	05-03-2022	n/a	18:40:33	2.0.10.252	3	0	0	428719	11	428719	4000	-999999	603984	0	588717	0	Run4Proc	3	1	3	RunList	6	HighLargeED	8000	1	580718	1	580718	0	580717	0	A4HighLargeEDBlockProc	n/a	n/a	n/a	n/a	n/a	n/a	n/a	n/a	n/a	6.0	1.0	6.0	n/a	n/a	n/a	Run4BlockList	2	n/a	n/a	n/a	n/a	n/a	n/a	n/a	n/a	n/a	2.0	1.0	2.0	n/a	n/a	n/a	n/a	n/a	n/a	n/a	n/a	n/a	n/a	n/a	n/a	n/a	n/a	n/a	n/a	n/a	n/a	n/a	n/a	n/a	n/a	n/a	n/a	n/a	n/a	n/a	n/a	n/a	n/a	n/a	n/a	n/a	n/a	n/a	n/a	n/a	n/a	n/a	n/a	n/a	n/a	n/a	n/a	n/a	n/a	n/a	n/a	n/a	n/a	n/a	n/a	n/a	n/a	n/a	n/a	n/a	n/a	n/a	n/a	n/a	n/a	n/a	n/a	n/a	n/a	n/a	n/a	n/a	n/a	n/a	n/a	n/a	n/a	n/a	n/a	n/a	n/a	A4_02.jpg	500	0	568218	0	568218	0	TrialProc1	A4HighLargeEDBlockList	2500	0	565718	0	565718	0	565718	2500	d	1123	566841	136.999
140	2.5	000_R01_VB_allProc	131	1	"<?xml version=""1.0""?>\n<Clock xmlns:dt=""urn:schemas-microsoft-com:datatypes""><Description dt:dt=""string"">E-Prime Primary Realtime Clock</Description><StartTime><Timestamp dt:dt=""int"">0</Timestamp><DateUtc dt:dt=""string"">2022-05-03T22:40:33Z</DateUtc></StartTime><FrequencyChanges><FrequencyChange><Frequency dt:dt=""r8"">3020371</Frequency><Timestamp dt:dt=""r8"">99254816021</Timestamp><Current dt:dt=""r8"">0</Current><DateUtc dt:dt=""string"">2022-05-03T22:40:33Z</DateUtc></FrequencyChange></FrequencyChanges></Clock>\n"	000_R01_VB_allProc-131-1	60.001	1.0.0.232	1	471161035	Professional	2.0.10.356	2.0.10.356	05-03-2022	n/a	18:40:33	2.0.10.252	3	0	0	428719	11	428719	4000	-999999	603984	0	588717	0	Run4Proc	3	1	3	RunList	6	HighLargeED	8000	1	580718	1	580718	0	580717	0	A4HighLargeEDBlockProc	n/a	n/a	n/a	n/a	n/a	n/a	n/a	n/a	n/a	6.0	1.0	6.0	n/a	n/a	n/a	Run4BlockList	3	n/a	n/a	n/a	n/a	n/a	n/a	n/a	n/a	n/a	3.0	1.0	3.0	n/a	n/a	n/a	n/a	n/a	n/a	n/a	n/a	n/a	n/a	n/a	n/a	n/a	n/a	n/a	n/a	n/a	n/a	n/a	n/a	n/a	n/a	n/a	n/a	n/a	n/a	n/a	n/a	n/a	n/a	n/a	n/a	n/a	n/a	n/a	n/a	n/a	n/a	n/a	n/a	n/a	n/a	n/a	n/a	n/a	n/a	n/a	n/a	n/a	n/a	n/a	n/a	n/a	n/a	n/a	n/a	n/a	n/a	n/a	n/a	n/a	n/a	n/a	n/a	n/a	n/a	n/a	n/a	n/a	n/a	n/a	n/a	n/a	n/a	n/a	n/a	n/a	n/a	A4_03.jpg	500	0	571218	0	571218	0	TrialProc1	A4HighLargeEDBlockList	2500	0	568718	0	568718	0	568718	2500	c	915	569633	139.999
143	2.5	000_R01_VB_allProc	131	1	"<?xml version=""1.0""?>\n<Clock xmlns:dt=""urn:schemas-microsoft-com:datatypes""><Description dt:dt=""string"">E-Prime Primary Realtime Clock</Description><StartTime><Timestamp dt:dt=""int"">0</Timestamp><DateUtc dt:dt=""string"">2022-05-03T22:40:33Z</DateUtc></StartTime><FrequencyChanges><FrequencyChange><Frequency dt:dt=""r8"">3020371</Frequency><Timestamp dt:dt=""r8"">99254816021</Timestamp><Current dt:dt=""r8"">0</Current><DateUtc dt:dt=""string"">2022-05-03T22:40:33Z</DateUtc></FrequencyChange></FrequencyChanges></Clock>\n"	000_R01_VB_allProc-131-1	60.001	1.0.0.232	1	471161035	Professional	2.0.10.356	2.0.10.356	05-03-2022	n/a	18:40:33	2.0.10.252	3	0	0	428719	11	428719	4000	-999999	603984	0	588717	0	Run4Proc	3	1	3	RunList	6	HighLargeED	8000	1	580718	1	580718	0	580717	0	A4HighLargeEDBlockProc	n/a	n/a	n/a	n/a	n/a	n/a	n/a	n/a	n/a	6.0	1.0	6.0	n/a	n/a	n/a	Run4BlockList	4	n/a	n/a	n/a	n/a	n/a	n/a	n/a	n/a	n/a	4.0	1.0	4.0	n/a	n/a	n/a	n/a	n/a	n/a	n/a	n/a	n/a	n/a	n/a	n/a	n/a	n/a	n/a	n/a	n/a	n/a	n/a	n/a	n/a	n/a	n/a	n/a	n/a	n/a	n/a	n/a	n/a	n/a	n/a	n/a	n/a	n/a	n/a	n/a	n/a	n/a	n/a	n/a	n/a	n/a	n/a	n/a	n/a	n/a	n/a	n/a	n/a	n/a	n/a	n/a	n/a	n/a	n/a	n/a	n/a	n/a	n/a	n/a	n/a	n/a	n/a	n/a	n/a	n/a	n/a	n/a	n/a	n/a	n/a	n/a	n/a	n/a	n/a	n/a	n/a	n/a	A4_04.jpg	500	0	574218	0	574218	0	TrialProc1	A4HighLargeEDBlockList	2500	0	571718	0	571718	0	571718	2500	d	923	572641	142.999
146	2.5	000_R01_VB_allProc	131	1	"<?xml version=""1.0""?>\n<Clock xmlns:dt=""urn:schemas-microsoft-com:datatypes""><Description dt:dt=""string"">E-Prime Primary Realtime Clock</Description><StartTime><Timestamp dt:dt=""int"">0</Timestamp><DateUtc dt:dt=""string"">2022-05-03T22:40:33Z</DateUtc></StartTime><FrequencyChanges><FrequencyChange><Frequency dt:dt=""r8"">3020371</Frequency><Timestamp dt:dt=""r8"">99254816021</Timestamp><Current dt:dt=""r8"">0</Current><DateUtc dt:dt=""string"">2022-05-03T22:40:33Z</DateUtc></FrequencyChange></FrequencyChanges></Clock>\n"	000_R01_VB_allProc-131-1	60.001	1.0.0.232	1	471161035	Professional	2.0.10.356	2.0.10.356	05-03-2022	n/a	18:40:33	2.0.10.252	3	0	0	428719	11	428719	4000	-999999	603984	0	588717	0	Run4Proc	3	1	3	RunList	6	HighLargeED	8000	1	580718	1	580718	0	580717	0	A4HighLargeEDBlockProc	n/a	n/a	n/a	n/a	n/a	n/a	n/a	n/a	n/a	6.0	1.0	6.0	n/a	n/a	n/a	Run4BlockList	5	n/a	n/a	n/a	n/a	n/a	n/a	n/a	n/a	n/a	5.0	1.0	5.0	n/a	n/a	n/a	n/a	n/a	n/a	n/a	n/a	n/a	n/a	n/a	n/a	n/a	n/a	n/a	n/a	n/a	n/a	n/a	n/a	n/a	n/a	n/a	n/a	n/a	n/a	n/a	n/a	n/a	n/a	n/a	n/a	n/a	n/a	n/a	n/a	n/a	n/a	n/a	n/a	n/a	n/a	n/a	n/a	n/a	n/a	n/a	n/a	n/a	n/a	n/a	n/a	n/a	n/a	n/a	n/a	n/a	n/a	n/a	n/a	n/a	n/a	n/a	n/a	n/a	n/a	n/a	n/a	n/a	n/a	n/a	n/a	n/a	n/a	n/a	n/a	n/a	n/a	A4_05.jpg	500	0	577218	0	577218	0	TrialProc1	A4HighLargeEDBlockList	2500	0	574718	0	574718	0	574718	2500	d	1147	575865	145.999
149	2.5	000_R01_VB_allProc	131	1	"<?xml version=""1.0""?>\n<Clock xmlns:dt=""urn:schemas-microsoft-com:datatypes""><Description dt:dt=""string"">E-Prime Primary Realtime Clock</Description><StartTime><Timestamp dt:dt=""int"">0</Timestamp><DateUtc dt:dt=""string"">2022-05-03T22:40:33Z</DateUtc></StartTime><FrequencyChanges><FrequencyChange><Frequency dt:dt=""r8"">3020371</Frequency><Timestamp dt:dt=""r8"">99254816021</Timestamp><Current dt:dt=""r8"">0</Current><DateUtc dt:dt=""string"">2022-05-03T22:40:33Z</DateUtc></FrequencyChange></FrequencyChanges></Clock>\n"	000_R01_VB_allProc-131-1	60.001	1.0.0.232	1	471161035	Professional	2.0.10.356	2.0.10.356	05-03-2022	n/a	18:40:33	2.0.10.252	3	0	0	428719	11	428719	4000	-999999	603984	0	588717	0	Run4Proc	3	1	3	RunList	6	HighLargeED	8000	1	580718	1	580718	0	580717	0	A4HighLargeEDBlockProc	n/a	n/a	n/a	n/a	n/a	n/a	n/a	n/a	n/a	6.0	1.0	6.0	n/a	n/a	n/a	Run4BlockList	6	n/a	n/a	n/a	n/a	n/a	n/a	n/a	n/a	n/a	6.0	1.0	6.0	n/a	n/a	n/a	n/a	n/a	n/a	n/a	n/a	n/a	n/a	n/a	n/a	n/a	n/a	n/a	n/a	n/a	n/a	n/a	n/a	n/a	n/a	n/a	n/a	n/a	n/a	n/a	n/a	n/a	n/a	n/a	n/a	n/a	n/a	n/a	n/a	n/a	n/a	n/a	n/a	n/a	n/a	n/a	n/a	n/a	n/a	n/a	n/a	n/a	n/a	n/a	n/a	n/a	n/a	n/a	n/a	n/a	n/a	n/a	n/a	n/a	n/a	n/a	n/a	n/a	n/a	n/a	n/a	n/a	n/a	n/a	n/a	n/a	n/a	n/a	n/a	n/a	n/a	A4_06.jpg	500	1	580218	-1	580217	0	TrialProc1	A4HighLargeEDBlockList	2500	0	577718	0	577718	0	577718	2499	d	995	578713	148.999
