onset	duration	experiment_name	sub	ses	clock_information	datafile_basename	display_refreshrate	experiment_version	group	randomseed	runtime_capabilities	runtime_version	runtimeversionexpected	session_date	session_start_date_time_utc	session_time	studio_version	block	fixation2trs_durationerror	fixation2trs_offsetdelay	fixation2trs_offsettime	fixation2trs_onsetdelay	fixation2trs_onsettime	fixation2trs_onsettoonsettime	goodwork_durationerror	goodwork_finishtime	goodwork_onsetdelay	goodwork_onsettime	goodwork_onsettoonsettime	procedure_block	runlist	runlist_cycle	runlist_sample	running_block	trial	condition	interblockinterval_duration	interblockinterval_durationerror	interblockinterval_finishtime	interblockinterval_offsetdelay	interblockinterval_offsettime	interblockinterval_onsetdelay	interblockinterval_onsettime	interblockinterval_onsettoonsettime	procedure_trial	run1blocklist	run1blocklist_cycle	run1blocklist_sample	run2blocklist	run2blocklist_cycle	run2blocklist_sample	run3blocklist	run3blocklist_cycle	run3blocklist_sample	run4blocklist	run4blocklist_cycle	run4blocklist_sample	run5blocklist	run5blocklist_cycle	run5blocklist_sample	running_trial	subtrial	a1highlargeedblocklist	a1highlargeedblocklist_cycle	a1highlargeedblocklist_sample	a2highlargeedblocklist	a2highlargeedblocklist_cycle	a2highlargeedblocklist_sample	a3highlargeedblocklist	a3highlargeedblocklist_cycle	a3highlargeedblocklist_sample	a4highlargeedblocklist	a4highlargeedblocklist_cycle	a4highlargeedblocklist_sample	a5highlargeedblocklist	a5highlargeedblocklist_cycle	a5highlargeedblocklist_sample	b1highsmalledblocklist	b1highsmalledblocklist_cycle	b1highsmalledblocklist_sample	b2highsmalledblocklist	b2highsmalledblocklist_cycle	b2highsmalledblocklist_sample	b3highsmalledblocklist	b3highsmalledblocklist_cycle	b3highsmalledblocklist_sample	b4highsmalledblocklist	b4highsmalledblocklist_cycle	b4highsmalledblocklist_sample	b5highsmalledblocklist	b5highsmalledblocklist_cycle	b5highsmalledblocklist_sample	c1lowlargeedblocklist	c1lowlargeedblocklist_cycle	c1lowlargeedblocklist_sample	c2lowlargeedblocklist	c2lowlargeedblocklist_cycle	c2lowlargeedblocklist_sample	c3lowlargeedblocklist	c3lowlargeedblocklist_cycle	c3lowlargeedblocklist_sample	c4lowlargeedblocklist	c4lowlargeedblocklist_cycle	c4lowlargeedblocklist_sample	c5lowlargeedblocklist	c5lowlargeedblocklist_cycle	c5lowlargeedblocklist_sample	d1lowsmalledblocklist	d1lowsmalledblocklist_cycle	d1lowsmalledblocklist_sample	d2highlargeedblocklist	d2highlargeedblocklist_cycle	d2highlargeedblocklist_sample	d3lowsmalledblocklist	d3lowsmalledblocklist_cycle	d3lowsmalledblocklist_sample	d4lowsmalledblocklist	d4lowsmalledblocklist_cycle	d4lowsmalledblocklist_sample	d5lowsmalledblocklist	d5lowsmalledblocklist_cycle	d5lowsmalledblocklist_sample	e1officelargeblocklist	e1officelargeblocklist_cycle	e1officelargeblocklist_sample	e2officelargeblocklist	e2officelargeblocklist_cycle	e2officelargeblocklist_sample	e3officelargeblocklist	e3officelargeblocklist_cycle	e3officelargeblocklist_sample	e4officelargeblocklist	e4officelargeblocklist_cycle	e4officelargeblocklist_sample	e5officelargeblocklist	e5officelargeblocklist_cycle	e5officelargeblocklist_sample	f1officesmallblocklist	f1officesmallblocklist_cycle	f1officesmallblocklist_sample	f2officesmallblocklist	f2officesmallblocklist_cycle	f2officesmallblocklist_sample	f3officesmallblocklist	f3officesmallblocklist_cycle	f3officesmallblocklist_sample	f4officesmallblocklist	f4officesmallblocklist_cycle	f4officesmallblocklist_sample	f5officesmallblocklist	f5officesmallblocklist_cycle	f5officesmallblocklist_sample	filename	isi_duration	isi_durationerror	isi_finishtime	isi_onsetdelay	isi_onsettime	isi_onsettoonsettime	procedure_subtrial	running_subtrial	stimslide_duration	stimslide_durationerror	stimslide_finishtime	stimslide_offsetdelay	stimslide_offsettime	stimslide_onsetdelay	stimslide_onsettime	stimslide_onsettoonsettime	stimslide_resp	stimslide_rt	stimslide_rttime	onset_unrounded
4	2.5	000_R01_VB_allProc	131	1	"<?xml version=""1.0""?>\n<Clock xmlns:dt=""urn:schemas-microsoft-com:datatypes""><Description dt:dt=""string"">E-Prime Primary Realtime Clock</Description><StartTime><Timestamp dt:dt=""int"">0</Timestamp><DateUtc dt:dt=""string"">2022-05-03T22:40:33Z</DateUtc></StartTime><FrequencyChanges><FrequencyChange><Frequency dt:dt=""r8"">3020371</Frequency><Timestamp dt:dt=""r8"">99254816021</Timestamp><Current dt:dt=""r8"">0</Current><DateUtc dt:dt=""string"">2022-05-03T22:40:33Z</DateUtc></FrequencyChange></FrequencyChanges></Clock>\n"	000_R01_VB_allProc-131-1	60.001	1.0.0.232	1	471161035	Professional	2.0.10.356	2.0.10.356	05-03-2022	n/a	18:40:33	2.0.10.252	2	0	0	247721	20	247721	4000	-999999	419329	0	407719	0	Run5Proc	2	1	2	RunList	1	LowLargeED	8000	0	269720	0	269720	0	269720	0	C5LowLargeEDBlockProc	n/a	n/a	n/a	n/a	n/a	n/a	n/a	n/a	n/a	n/a	n/a	n/a	1.0	1.0	1.0	Run5BlockList	1	n/a	n/a	n/a	n/a	n/a	n/a	n/a	n/a	n/a	n/a	n/a	n/a	n/a	n/a	n/a	n/a	n/a	n/a	n/a	n/a	n/a	n/a	n/a	n/a	n/a	n/a	n/a	n/a	n/a	n/a	n/a	n/a	n/a	n/a	n/a	n/a	n/a	n/a	n/a	n/a	n/a	n/a	1.0	1.0	1.0	n/a	n/a	n/a	n/a	n/a	n/a	n/a	n/a	n/a	n/a	n/a	n/a	n/a	n/a	n/a	n/a	n/a	n/a	n/a	n/a	n/a	n/a	n/a	n/a	n/a	n/a	n/a	n/a	n/a	n/a	n/a	n/a	n/a	n/a	n/a	n/a	n/a	n/a	n/a	n/a	n/a	n/a	n/a	n/a	n/a	C5_01.jpg	500	1	254221	-1	254220	0	TrialProc1	C5LowLargeEDBlockList	2500	0	251721	0	251721	0	251721	2499	c	1250	252971	4.0
7	2.5	000_R01_VB_allProc	131	1	"<?xml version=""1.0""?>\n<Clock xmlns:dt=""urn:schemas-microsoft-com:datatypes""><Description dt:dt=""string"">E-Prime Primary Realtime Clock</Description><StartTime><Timestamp dt:dt=""int"">0</Timestamp><DateUtc dt:dt=""string"">2022-05-03T22:40:33Z</DateUtc></StartTime><FrequencyChanges><FrequencyChange><Frequency dt:dt=""r8"">3020371</Frequency><Timestamp dt:dt=""r8"">99254816021</Timestamp><Current dt:dt=""r8"">0</Current><DateUtc dt:dt=""string"">2022-05-03T22:40:33Z</DateUtc></FrequencyChange></FrequencyChanges></Clock>\n"	000_R01_VB_allProc-131-1	60.001	1.0.0.232	1	471161035	Professional	2.0.10.356	2.0.10.356	05-03-2022	n/a	18:40:33	2.0.10.252	2	0	0	247721	20	247721	4000	-999999	419329	0	407719	0	Run5Proc	2	1	2	RunList	1	LowLargeED	8000	0	269720	0	269720	0	269720	0	C5LowLargeEDBlockProc	n/a	n/a	n/a	n/a	n/a	n/a	n/a	n/a	n/a	n/a	n/a	n/a	1.0	1.0	1.0	Run5BlockList	2	n/a	n/a	n/a	n/a	n/a	n/a	n/a	n/a	n/a	n/a	n/a	n/a	n/a	n/a	n/a	n/a	n/a	n/a	n/a	n/a	n/a	n/a	n/a	n/a	n/a	n/a	n/a	n/a	n/a	n/a	n/a	n/a	n/a	n/a	n/a	n/a	n/a	n/a	n/a	n/a	n/a	n/a	2.0	1.0	2.0	n/a	n/a	n/a	n/a	n/a	n/a	n/a	n/a	n/a	n/a	n/a	n/a	n/a	n/a	n/a	n/a	n/a	n/a	n/a	n/a	n/a	n/a	n/a	n/a	n/a	n/a	n/a	n/a	n/a	n/a	n/a	n/a	n/a	n/a	n/a	n/a	n/a	n/a	n/a	n/a	n/a	n/a	n/a	n/a	n/a	C5_02.jpg	500	1	257221	0	257220	0	TrialProc1	C5LowLargeEDBlockList	2500	1	254721	1	254721	0	254720	2500	c	1083	255803	6.9990000000000006
10	2.5	000_R01_VB_allProc	131	1	"<?xml version=""1.0""?>\n<Clock xmlns:dt=""urn:schemas-microsoft-com:datatypes""><Description dt:dt=""string"">E-Prime Primary Realtime Clock</Description><StartTime><Timestamp dt:dt=""int"">0</Timestamp><DateUtc dt:dt=""string"">2022-05-03T22:40:33Z</DateUtc></StartTime><FrequencyChanges><FrequencyChange><Frequency dt:dt=""r8"">3020371</Frequency><Timestamp dt:dt=""r8"">99254816021</Timestamp><Current dt:dt=""r8"">0</Current><DateUtc dt:dt=""string"">2022-05-03T22:40:33Z</DateUtc></FrequencyChange></FrequencyChanges></Clock>\n"	000_R01_VB_allProc-131-1	60.001	1.0.0.232	1	471161035	Professional	2.0.10.356	2.0.10.356	05-03-2022	n/a	18:40:33	2.0.10.252	2	0	0	247721	20	247721	4000	-999999	419329	0	407719	0	Run5Proc	2	1	2	RunList	1	LowLargeED	8000	0	269720	0	269720	0	269720	0	C5LowLargeEDBlockProc	n/a	n/a	n/a	n/a	n/a	n/a	n/a	n/a	n/a	n/a	n/a	n/a	1.0	1.0	1.0	Run5BlockList	3	n/a	n/a	n/a	n/a	n/a	n/a	n/a	n/a	n/a	n/a	n/a	n/a	n/a	n/a	n/a	n/a	n/a	n/a	n/a	n/a	n/a	n/a	n/a	n/a	n/a	n/a	n/a	n/a	n/a	n/a	n/a	n/a	n/a	n/a	n/a	n/a	n/a	n/a	n/a	n/a	n/a	n/a	3.0	1.0	3.0	n/a	n/a	n/a	n/a	n/a	n/a	n/a	n/a	n/a	n/a	n/a	n/a	n/a	n/a	n/a	n/a	n/a	n/a	n/a	n/a	n/a	n/a	n/a	n/a	n/a	n/a	n/a	n/a	n/a	n/a	n/a	n/a	n/a	n/a	n/a	n/a	n/a	n/a	n/a	n/a	n/a	n/a	n/a	n/a	n/a	C5_03.jpg	500	1	260221	0	260220	0	TrialProc1	C5LowLargeEDBlockList	2500	1	257721	1	257721	0	257720	2500	d	1003	258723	9.998999999999999
13	2.5	000_R01_VB_allProc	131	1	"<?xml version=""1.0""?>\n<Clock xmlns:dt=""urn:schemas-microsoft-com:datatypes""><Description dt:dt=""string"">E-Prime Primary Realtime Clock</Description><StartTime><Timestamp dt:dt=""int"">0</Timestamp><DateUtc dt:dt=""string"">2022-05-03T22:40:33Z</DateUtc></StartTime><FrequencyChanges><FrequencyChange><Frequency dt:dt=""r8"">3020371</Frequency><Timestamp dt:dt=""r8"">99254816021</Timestamp><Current dt:dt=""r8"">0</Current><DateUtc dt:dt=""string"">2022-05-03T22:40:33Z</DateUtc></FrequencyChange></FrequencyChanges></Clock>\n"	000_R01_VB_allProc-131-1	60.001	1.0.0.232	1	471161035	Professional	2.0.10.356	2.0.10.356	05-03-2022	n/a	18:40:33	2.0.10.252	2	0	0	247721	20	247721	4000	-999999	419329	0	407719	0	Run5Proc	2	1	2	RunList	1	LowLargeED	8000	0	269720	0	269720	0	269720	0	C5LowLargeEDBlockProc	n/a	n/a	n/a	n/a	n/a	n/a	n/a	n/a	n/a	n/a	n/a	n/a	1.0	1.0	1.0	Run5BlockList	4	n/a	n/a	n/a	n/a	n/a	n/a	n/a	n/a	n/a	n/a	n/a	n/a	n/a	n/a	n/a	n/a	n/a	n/a	n/a	n/a	n/a	n/a	n/a	n/a	n/a	n/a	n/a	n/a	n/a	n/a	n/a	n/a	n/a	n/a	n/a	n/a	n/a	n/a	n/a	n/a	n/a	n/a	4.0	1.0	4.0	n/a	n/a	n/a	n/a	n/a	n/a	n/a	n/a	n/a	n/a	n/a	n/a	n/a	n/a	n/a	n/a	n/a	n/a	n/a	n/a	n/a	n/a	n/a	n/a	n/a	n/a	n/a	n/a	n/a	n/a	n/a	n/a	n/a	n/a	n/a	n/a	n/a	n/a	n/a	n/a	n/a	n/a	n/a	n/a	n/a	C5_04.jpg	500	0	263220	0	263220	0	TrialProc1	C5LowLargeEDBlockList	2500	1	260721	1	260721	0	260720	2500	d	955	261675	12.999
16	2.5	000_R01_VB_allProc	131	1	"<?xml version=""1.0""?>\n<Clock xmlns:dt=""urn:schemas-microsoft-com:datatypes""><Description dt:dt=""string"">E-Prime Primary Realtime Clock</Description><StartTime><Timestamp dt:dt=""int"">0</Timestamp><DateUtc dt:dt=""string"">2022-05-03T22:40:33Z</DateUtc></StartTime><FrequencyChanges><FrequencyChange><Frequency dt:dt=""r8"">3020371</Frequency><Timestamp dt:dt=""r8"">99254816021</Timestamp><Current dt:dt=""r8"">0</Current><DateUtc dt:dt=""string"">2022-05-03T22:40:33Z</DateUtc></FrequencyChange></FrequencyChanges></Clock>\n"	000_R01_VB_allProc-131-1	60.001	1.0.0.232	1	471161035	Professional	2.0.10.356	2.0.10.356	05-03-2022	n/a	18:40:33	2.0.10.252	2	0	0	247721	20	247721	4000	-999999	419329	0	407719	0	Run5Proc	2	1	2	RunList	1	LowLargeED	8000	0	269720	0	269720	0	269720	0	C5LowLargeEDBlockProc	n/a	n/a	n/a	n/a	n/a	n/a	n/a	n/a	n/a	n/a	n/a	n/a	1.0	1.0	1.0	Run5BlockList	5	n/a	n/a	n/a	n/a	n/a	n/a	n/a	n/a	n/a	n/a	n/a	n/a	n/a	n/a	n/a	n/a	n/a	n/a	n/a	n/a	n/a	n/a	n/a	n/a	n/a	n/a	n/a	n/a	n/a	n/a	n/a	n/a	n/a	n/a	n/a	n/a	n/a	n/a	n/a	n/a	n/a	n/a	5.0	1.0	5.0	n/a	n/a	n/a	n/a	n/a	n/a	n/a	n/a	n/a	n/a	n/a	n/a	n/a	n/a	n/a	n/a	n/a	n/a	n/a	n/a	n/a	n/a	n/a	n/a	n/a	n/a	n/a	n/a	n/a	n/a	n/a	n/a	n/a	n/a	n/a	n/a	n/a	n/a	n/a	n/a	n/a	n/a	n/a	n/a	n/a	C5_05.jpg	500	0	266220	0	266220	0	TrialProc1	C5LowLargeEDBlockList	2500	0	263720	0	263720	0	263720	2500	c	1035	264755	15.999
19	2.5	000_R01_VB_allProc	131	1	"<?xml version=""1.0""?>\n<Clock xmlns:dt=""urn:schemas-microsoft-com:datatypes""><Description dt:dt=""string"">E-Prime Primary Realtime Clock</Description><StartTime><Timestamp dt:dt=""int"">0</Timestamp><DateUtc dt:dt=""string"">2022-05-03T22:40:33Z</DateUtc></StartTime><FrequencyChanges><FrequencyChange><Frequency dt:dt=""r8"">3020371</Frequency><Timestamp dt:dt=""r8"">99254816021</Timestamp><Current dt:dt=""r8"">0</Current><DateUtc dt:dt=""string"">2022-05-03T22:40:33Z</DateUtc></FrequencyChange></FrequencyChanges></Clock>\n"	000_R01_VB_allProc-131-1	60.001	1.0.0.232	1	471161035	Professional	2.0.10.356	2.0.10.356	05-03-2022	n/a	18:40:33	2.0.10.252	2	0	0	247721	20	247721	4000	-999999	419329	0	407719	0	Run5Proc	2	1	2	RunList	1	LowLargeED	8000	0	269720	0	269720	0	269720	0	C5LowLargeEDBlockProc	n/a	n/a	n/a	n/a	n/a	n/a	n/a	n/a	n/a	n/a	n/a	n/a	1.0	1.0	1.0	Run5BlockList	6	n/a	n/a	n/a	n/a	n/a	n/a	n/a	n/a	n/a	n/a	n/a	n/a	n/a	n/a	n/a	n/a	n/a	n/a	n/a	n/a	n/a	n/a	n/a	n/a	n/a	n/a	n/a	n/a	n/a	n/a	n/a	n/a	n/a	n/a	n/a	n/a	n/a	n/a	n/a	n/a	n/a	n/a	6.0	1.0	6.0	n/a	n/a	n/a	n/a	n/a	n/a	n/a	n/a	n/a	n/a	n/a	n/a	n/a	n/a	n/a	n/a	n/a	n/a	n/a	n/a	n/a	n/a	n/a	n/a	n/a	n/a	n/a	n/a	n/a	n/a	n/a	n/a	n/a	n/a	n/a	n/a	n/a	n/a	n/a	n/a	n/a	n/a	n/a	n/a	n/a	C5_06.jpg	500	0	269220	0	269220	0	TrialProc1	C5LowLargeEDBlockList	2500	0	266720	0	266720	0	266720	2500	d	1027	267747	18.999000000000002
30	2.5	000_R01_VB_allProc	131	1	"<?xml version=""1.0""?>\n<Clock xmlns:dt=""urn:schemas-microsoft-com:datatypes""><Description dt:dt=""string"">E-Prime Primary Realtime Clock</Description><StartTime><Timestamp dt:dt=""int"">0</Timestamp><DateUtc dt:dt=""string"">2022-05-03T22:40:33Z</DateUtc></StartTime><FrequencyChanges><FrequencyChange><Frequency dt:dt=""r8"">3020371</Frequency><Timestamp dt:dt=""r8"">99254816021</Timestamp><Current dt:dt=""r8"">0</Current><DateUtc dt:dt=""string"">2022-05-03T22:40:33Z</DateUtc></FrequencyChange></FrequencyChanges></Clock>\n"	000_R01_VB_allProc-131-1	60.001	1.0.0.232	1	471161035	Professional	2.0.10.356	2.0.10.356	05-03-2022	n/a	18:40:33	2.0.10.252	2	0	0	247721	20	247721	4000	-999999	419329	0	407719	0	Run5Proc	2	1	2	RunList	2	OfficeSmall	8000	0	295720	0	295720	0	295720	0	F5OfficeSmallBlockProc	n/a	n/a	n/a	n/a	n/a	n/a	n/a	n/a	n/a	n/a	n/a	n/a	2.0	1.0	2.0	Run5BlockList	1	n/a	n/a	n/a	n/a	n/a	n/a	n/a	n/a	n/a	n/a	n/a	n/a	n/a	n/a	n/a	n/a	n/a	n/a	n/a	n/a	n/a	n/a	n/a	n/a	n/a	n/a	n/a	n/a	n/a	n/a	n/a	n/a	n/a	n/a	n/a	n/a	n/a	n/a	n/a	n/a	n/a	n/a	n/a	n/a	n/a	n/a	n/a	n/a	n/a	n/a	n/a	n/a	n/a	n/a	n/a	n/a	n/a	n/a	n/a	n/a	n/a	n/a	n/a	n/a	n/a	n/a	n/a	n/a	n/a	n/a	n/a	n/a	n/a	n/a	n/a	n/a	n/a	n/a	n/a	n/a	n/a	n/a	n/a	n/a	n/a	n/a	n/a	1.0	1.0	1.0	F5_01.jpg	500	0	280220	0	280220	0	TrialProc1	F5OfficeSmallBlockList	2500	0	277720	0	277720	0	277720	2500	c	1531	279251	29.999
33	2.5	000_R01_VB_allProc	131	1	"<?xml version=""1.0""?>\n<Clock xmlns:dt=""urn:schemas-microsoft-com:datatypes""><Description dt:dt=""string"">E-Prime Primary Realtime Clock</Description><StartTime><Timestamp dt:dt=""int"">0</Timestamp><DateUtc dt:dt=""string"">2022-05-03T22:40:33Z</DateUtc></StartTime><FrequencyChanges><FrequencyChange><Frequency dt:dt=""r8"">3020371</Frequency><Timestamp dt:dt=""r8"">99254816021</Timestamp><Current dt:dt=""r8"">0</Current><DateUtc dt:dt=""string"">2022-05-03T22:40:33Z</DateUtc></FrequencyChange></FrequencyChanges></Clock>\n"	000_R01_VB_allProc-131-1	60.001	1.0.0.232	1	471161035	Professional	2.0.10.356	2.0.10.356	05-03-2022	n/a	18:40:33	2.0.10.252	2	0	0	247721	20	247721	4000	-999999	419329	0	407719	0	Run5Proc	2	1	2	RunList	2	OfficeSmall	8000	0	295720	0	295720	0	295720	0	F5OfficeSmallBlockProc	n/a	n/a	n/a	n/a	n/a	n/a	n/a	n/a	n/a	n/a	n/a	n/a	2.0	1.0	2.0	Run5BlockList	2	n/a	n/a	n/a	n/a	n/a	n/a	n/a	n/a	n/a	n/a	n/a	n/a	n/a	n/a	n/a	n/a	n/a	n/a	n/a	n/a	n/a	n/a	n/a	n/a	n/a	n/a	n/a	n/a	n/a	n/a	n/a	n/a	n/a	n/a	n/a	n/a	n/a	n/a	n/a	n/a	n/a	n/a	n/a	n/a	n/a	n/a	n/a	n/a	n/a	n/a	n/a	n/a	n/a	n/a	n/a	n/a	n/a	n/a	n/a	n/a	n/a	n/a	n/a	n/a	n/a	n/a	n/a	n/a	n/a	n/a	n/a	n/a	n/a	n/a	n/a	n/a	n/a	n/a	n/a	n/a	n/a	n/a	n/a	n/a	n/a	n/a	n/a	2.0	1.0	2.0	F5_02.jpg	500	0	283220	0	283220	0	TrialProc1	F5OfficeSmallBlockList	2500	0	280720	0	280720	0	280720	2500	c	571	281291	32.998999999999995
36	2.5	000_R01_VB_allProc	131	1	"<?xml version=""1.0""?>\n<Clock xmlns:dt=""urn:schemas-microsoft-com:datatypes""><Description dt:dt=""string"">E-Prime Primary Realtime Clock</Description><StartTime><Timestamp dt:dt=""int"">0</Timestamp><DateUtc dt:dt=""string"">2022-05-03T22:40:33Z</DateUtc></StartTime><FrequencyChanges><FrequencyChange><Frequency dt:dt=""r8"">3020371</Frequency><Timestamp dt:dt=""r8"">99254816021</Timestamp><Current dt:dt=""r8"">0</Current><DateUtc dt:dt=""string"">2022-05-03T22:40:33Z</DateUtc></FrequencyChange></FrequencyChanges></Clock>\n"	000_R01_VB_allProc-131-1	60.001	1.0.0.232	1	471161035	Professional	2.0.10.356	2.0.10.356	05-03-2022	n/a	18:40:33	2.0.10.252	2	0	0	247721	20	247721	4000	-999999	419329	0	407719	0	Run5Proc	2	1	2	RunList	2	OfficeSmall	8000	0	295720	0	295720	0	295720	0	F5OfficeSmallBlockProc	n/a	n/a	n/a	n/a	n/a	n/a	n/a	n/a	n/a	n/a	n/a	n/a	2.0	1.0	2.0	Run5BlockList	3	n/a	n/a	n/a	n/a	n/a	n/a	n/a	n/a	n/a	n/a	n/a	n/a	n/a	n/a	n/a	n/a	n/a	n/a	n/a	n/a	n/a	n/a	n/a	n/a	n/a	n/a	n/a	n/a	n/a	n/a	n/a	n/a	n/a	n/a	n/a	n/a	n/a	n/a	n/a	n/a	n/a	n/a	n/a	n/a	n/a	n/a	n/a	n/a	n/a	n/a	n/a	n/a	n/a	n/a	n/a	n/a	n/a	n/a	n/a	n/a	n/a	n/a	n/a	n/a	n/a	n/a	n/a	n/a	n/a	n/a	n/a	n/a	n/a	n/a	n/a	n/a	n/a	n/a	n/a	n/a	n/a	n/a	n/a	n/a	n/a	n/a	n/a	3.0	1.0	3.0	F5_03.jpg	500	0	286220	0	286220	0	TrialProc1	F5OfficeSmallBlockList	2500	0	283720	0	283720	0	283720	2500	c	1003	284723	35.998999999999995
39	2.5	000_R01_VB_allProc	131	1	"<?xml version=""1.0""?>\n<Clock xmlns:dt=""urn:schemas-microsoft-com:datatypes""><Description dt:dt=""string"">E-Prime Primary Realtime Clock</Description><StartTime><Timestamp dt:dt=""int"">0</Timestamp><DateUtc dt:dt=""string"">2022-05-03T22:40:33Z</DateUtc></StartTime><FrequencyChanges><FrequencyChange><Frequency dt:dt=""r8"">3020371</Frequency><Timestamp dt:dt=""r8"">99254816021</Timestamp><Current dt:dt=""r8"">0</Current><DateUtc dt:dt=""string"">2022-05-03T22:40:33Z</DateUtc></FrequencyChange></FrequencyChanges></Clock>\n"	000_R01_VB_allProc-131-1	60.001	1.0.0.232	1	471161035	Professional	2.0.10.356	2.0.10.356	05-03-2022	n/a	18:40:33	2.0.10.252	2	0	0	247721	20	247721	4000	-999999	419329	0	407719	0	Run5Proc	2	1	2	RunList	2	OfficeSmall	8000	0	295720	0	295720	0	295720	0	F5OfficeSmallBlockProc	n/a	n/a	n/a	n/a	n/a	n/a	n/a	n/a	n/a	n/a	n/a	n/a	2.0	1.0	2.0	Run5BlockList	4	n/a	n/a	n/a	n/a	n/a	n/a	n/a	n/a	n/a	n/a	n/a	n/a	n/a	n/a	n/a	n/a	n/a	n/a	n/a	n/a	n/a	n/a	n/a	n/a	n/a	n/a	n/a	n/a	n/a	n/a	n/a	n/a	n/a	n/a	n/a	n/a	n/a	n/a	n/a	n/a	n/a	n/a	n/a	n/a	n/a	n/a	n/a	n/a	n/a	n/a	n/a	n/a	n/a	n/a	n/a	n/a	n/a	n/a	n/a	n/a	n/a	n/a	n/a	n/a	n/a	n/a	n/a	n/a	n/a	n/a	n/a	n/a	n/a	n/a	n/a	n/a	n/a	n/a	n/a	n/a	n/a	n/a	n/a	n/a	n/a	n/a	n/a	4.0	1.0	4.0	F5_04.jpg	500	0	289220	0	289220	0	TrialProc1	F5OfficeSmallBlockList	2500	0	286720	0	286720	0	286720	2500	c	971	287691	38.999
42	2.5	000_R01_VB_allProc	131	1	"<?xml version=""1.0""?>\n<Clock xmlns:dt=""urn:schemas-microsoft-com:datatypes""><Description dt:dt=""string"">E-Prime Primary Realtime Clock</Description><StartTime><Timestamp dt:dt=""int"">0</Timestamp><DateUtc dt:dt=""string"">2022-05-03T22:40:33Z</DateUtc></StartTime><FrequencyChanges><FrequencyChange><Frequency dt:dt=""r8"">3020371</Frequency><Timestamp dt:dt=""r8"">99254816021</Timestamp><Current dt:dt=""r8"">0</Current><DateUtc dt:dt=""string"">2022-05-03T22:40:33Z</DateUtc></FrequencyChange></FrequencyChanges></Clock>\n"	000_R01_VB_allProc-131-1	60.001	1.0.0.232	1	471161035	Professional	2.0.10.356	2.0.10.356	05-03-2022	n/a	18:40:33	2.0.10.252	2	0	0	247721	20	247721	4000	-999999	419329	0	407719	0	Run5Proc	2	1	2	RunList	2	OfficeSmall	8000	0	295720	0	295720	0	295720	0	F5OfficeSmallBlockProc	n/a	n/a	n/a	n/a	n/a	n/a	n/a	n/a	n/a	n/a	n/a	n/a	2.0	1.0	2.0	Run5BlockList	5	n/a	n/a	n/a	n/a	n/a	n/a	n/a	n/a	n/a	n/a	n/a	n/a	n/a	n/a	n/a	n/a	n/a	n/a	n/a	n/a	n/a	n/a	n/a	n/a	n/a	n/a	n/a	n/a	n/a	n/a	n/a	n/a	n/a	n/a	n/a	n/a	n/a	n/a	n/a	n/a	n/a	n/a	n/a	n/a	n/a	n/a	n/a	n/a	n/a	n/a	n/a	n/a	n/a	n/a	n/a	n/a	n/a	n/a	n/a	n/a	n/a	n/a	n/a	n/a	n/a	n/a	n/a	n/a	n/a	n/a	n/a	n/a	n/a	n/a	n/a	n/a	n/a	n/a	n/a	n/a	n/a	n/a	n/a	n/a	n/a	n/a	n/a	5.0	1.0	5.0	F5_05.jpg	500	0	292220	0	292220	0	TrialProc1	F5OfficeSmallBlockList	2500	0	289720	0	289720	0	289720	2500	c	763	290483	41.999
45	2.5	000_R01_VB_allProc	131	1	"<?xml version=""1.0""?>\n<Clock xmlns:dt=""urn:schemas-microsoft-com:datatypes""><Description dt:dt=""string"">E-Prime Primary Realtime Clock</Description><StartTime><Timestamp dt:dt=""int"">0</Timestamp><DateUtc dt:dt=""string"">2022-05-03T22:40:33Z</DateUtc></StartTime><FrequencyChanges><FrequencyChange><Frequency dt:dt=""r8"">3020371</Frequency><Timestamp dt:dt=""r8"">99254816021</Timestamp><Current dt:dt=""r8"">0</Current><DateUtc dt:dt=""string"">2022-05-03T22:40:33Z</DateUtc></FrequencyChange></FrequencyChanges></Clock>\n"	000_R01_VB_allProc-131-1	60.001	1.0.0.232	1	471161035	Professional	2.0.10.356	2.0.10.356	05-03-2022	n/a	18:40:33	2.0.10.252	2	0	0	247721	20	247721	4000	-999999	419329	0	407719	0	Run5Proc	2	1	2	RunList	2	OfficeSmall	8000	0	295720	0	295720	0	295720	0	F5OfficeSmallBlockProc	n/a	n/a	n/a	n/a	n/a	n/a	n/a	n/a	n/a	n/a	n/a	n/a	2.0	1.0	2.0	Run5BlockList	6	n/a	n/a	n/a	n/a	n/a	n/a	n/a	n/a	n/a	n/a	n/a	n/a	n/a	n/a	n/a	n/a	n/a	n/a	n/a	n/a	n/a	n/a	n/a	n/a	n/a	n/a	n/a	n/a	n/a	n/a	n/a	n/a	n/a	n/a	n/a	n/a	n/a	n/a	n/a	n/a	n/a	n/a	n/a	n/a	n/a	n/a	n/a	n/a	n/a	n/a	n/a	n/a	n/a	n/a	n/a	n/a	n/a	n/a	n/a	n/a	n/a	n/a	n/a	n/a	n/a	n/a	n/a	n/a	n/a	n/a	n/a	n/a	n/a	n/a	n/a	n/a	n/a	n/a	n/a	n/a	n/a	n/a	n/a	n/a	n/a	n/a	n/a	6.0	1.0	6.0	F5_06.jpg	500	0	295220	0	295220	0	TrialProc1	F5OfficeSmallBlockList	2500	0	292720	0	292720	0	292720	2500	c	995	293715	44.999
56	2.5	000_R01_VB_allProc	131	1	"<?xml version=""1.0""?>\n<Clock xmlns:dt=""urn:schemas-microsoft-com:datatypes""><Description dt:dt=""string"">E-Prime Primary Realtime Clock</Description><StartTime><Timestamp dt:dt=""int"">0</Timestamp><DateUtc dt:dt=""string"">2022-05-03T22:40:33Z</DateUtc></StartTime><FrequencyChanges><FrequencyChange><Frequency dt:dt=""r8"">3020371</Frequency><Timestamp dt:dt=""r8"">99254816021</Timestamp><Current dt:dt=""r8"">0</Current><DateUtc dt:dt=""string"">2022-05-03T22:40:33Z</DateUtc></FrequencyChange></FrequencyChanges></Clock>\n"	000_R01_VB_allProc-131-1	60.001	1.0.0.232	1	471161035	Professional	2.0.10.356	2.0.10.356	05-03-2022	n/a	18:40:33	2.0.10.252	2	0	0	247721	20	247721	4000	-999999	419329	0	407719	0	Run5Proc	2	1	2	RunList	3	HighSmallED	8000	0	321720	0	321720	0	321720	0	B5HighSmallEDBlockProc	n/a	n/a	n/a	n/a	n/a	n/a	n/a	n/a	n/a	n/a	n/a	n/a	3.0	1.0	3.0	Run5BlockList	1	n/a	n/a	n/a	n/a	n/a	n/a	n/a	n/a	n/a	n/a	n/a	n/a	n/a	n/a	n/a	n/a	n/a	n/a	n/a	n/a	n/a	n/a	n/a	n/a	n/a	n/a	n/a	1.0	1.0	1.0	n/a	n/a	n/a	n/a	n/a	n/a	n/a	n/a	n/a	n/a	n/a	n/a	n/a	n/a	n/a	n/a	n/a	n/a	n/a	n/a	n/a	n/a	n/a	n/a	n/a	n/a	n/a	n/a	n/a	n/a	n/a	n/a	n/a	n/a	n/a	n/a	n/a	n/a	n/a	n/a	n/a	n/a	n/a	n/a	n/a	n/a	n/a	n/a	n/a	n/a	n/a	n/a	n/a	n/a	n/a	n/a	n/a	n/a	n/a	n/a	B5_01.jpg	500	0	306220	0	306220	0	TrialProc1	B5HighSmallEDBlockList	2500	0	303720	0	303720	0	303720	2500	c	1643	305363	55.999
59	2.5	000_R01_VB_allProc	131	1	"<?xml version=""1.0""?>\n<Clock xmlns:dt=""urn:schemas-microsoft-com:datatypes""><Description dt:dt=""string"">E-Prime Primary Realtime Clock</Description><StartTime><Timestamp dt:dt=""int"">0</Timestamp><DateUtc dt:dt=""string"">2022-05-03T22:40:33Z</DateUtc></StartTime><FrequencyChanges><FrequencyChange><Frequency dt:dt=""r8"">3020371</Frequency><Timestamp dt:dt=""r8"">99254816021</Timestamp><Current dt:dt=""r8"">0</Current><DateUtc dt:dt=""string"">2022-05-03T22:40:33Z</DateUtc></FrequencyChange></FrequencyChanges></Clock>\n"	000_R01_VB_allProc-131-1	60.001	1.0.0.232	1	471161035	Professional	2.0.10.356	2.0.10.356	05-03-2022	n/a	18:40:33	2.0.10.252	2	0	0	247721	20	247721	4000	-999999	419329	0	407719	0	Run5Proc	2	1	2	RunList	3	HighSmallED	8000	0	321720	0	321720	0	321720	0	B5HighSmallEDBlockProc	n/a	n/a	n/a	n/a	n/a	n/a	n/a	n/a	n/a	n/a	n/a	n/a	3.0	1.0	3.0	Run5BlockList	2	n/a	n/a	n/a	n/a	n/a	n/a	n/a	n/a	n/a	n/a	n/a	n/a	n/a	n/a	n/a	n/a	n/a	n/a	n/a	n/a	n/a	n/a	n/a	n/a	n/a	n/a	n/a	2.0	1.0	2.0	n/a	n/a	n/a	n/a	n/a	n/a	n/a	n/a	n/a	n/a	n/a	n/a	n/a	n/a	n/a	n/a	n/a	n/a	n/a	n/a	n/a	n/a	n/a	n/a	n/a	n/a	n/a	n/a	n/a	n/a	n/a	n/a	n/a	n/a	n/a	n/a	n/a	n/a	n/a	n/a	n/a	n/a	n/a	n/a	n/a	n/a	n/a	n/a	n/a	n/a	n/a	n/a	n/a	n/a	n/a	n/a	n/a	n/a	n/a	n/a	B5_02.jpg	500	0	309220	0	309220	0	TrialProc1	B5HighSmallEDBlockList	2500	0	306720	0	306720	0	306720	2500	d	1819	308539	58.999
62	2.5	000_R01_VB_allProc	131	1	"<?xml version=""1.0""?>\n<Clock xmlns:dt=""urn:schemas-microsoft-com:datatypes""><Description dt:dt=""string"">E-Prime Primary Realtime Clock</Description><StartTime><Timestamp dt:dt=""int"">0</Timestamp><DateUtc dt:dt=""string"">2022-05-03T22:40:33Z</DateUtc></StartTime><FrequencyChanges><FrequencyChange><Frequency dt:dt=""r8"">3020371</Frequency><Timestamp dt:dt=""r8"">99254816021</Timestamp><Current dt:dt=""r8"">0</Current><DateUtc dt:dt=""string"">2022-05-03T22:40:33Z</DateUtc></FrequencyChange></FrequencyChanges></Clock>\n"	000_R01_VB_allProc-131-1	60.001	1.0.0.232	1	471161035	Professional	2.0.10.356	2.0.10.356	05-03-2022	n/a	18:40:33	2.0.10.252	2	0	0	247721	20	247721	4000	-999999	419329	0	407719	0	Run5Proc	2	1	2	RunList	3	HighSmallED	8000	0	321720	0	321720	0	321720	0	B5HighSmallEDBlockProc	n/a	n/a	n/a	n/a	n/a	n/a	n/a	n/a	n/a	n/a	n/a	n/a	3.0	1.0	3.0	Run5BlockList	3	n/a	n/a	n/a	n/a	n/a	n/a	n/a	n/a	n/a	n/a	n/a	n/a	n/a	n/a	n/a	n/a	n/a	n/a	n/a	n/a	n/a	n/a	n/a	n/a	n/a	n/a	n/a	3.0	1.0	3.0	n/a	n/a	n/a	n/a	n/a	n/a	n/a	n/a	n/a	n/a	n/a	n/a	n/a	n/a	n/a	n/a	n/a	n/a	n/a	n/a	n/a	n/a	n/a	n/a	n/a	n/a	n/a	n/a	n/a	n/a	n/a	n/a	n/a	n/a	n/a	n/a	n/a	n/a	n/a	n/a	n/a	n/a	n/a	n/a	n/a	n/a	n/a	n/a	n/a	n/a	n/a	n/a	n/a	n/a	n/a	n/a	n/a	n/a	n/a	n/a	B5_03.jpg	500	0	312220	0	312220	0	TrialProc1	B5HighSmallEDBlockList	2500	0	309720	0	309720	0	309720	2500	c	1283	311003	61.999
65	2.5	000_R01_VB_allProc	131	1	"<?xml version=""1.0""?>\n<Clock xmlns:dt=""urn:schemas-microsoft-com:datatypes""><Description dt:dt=""string"">E-Prime Primary Realtime Clock</Description><StartTime><Timestamp dt:dt=""int"">0</Timestamp><DateUtc dt:dt=""string"">2022-05-03T22:40:33Z</DateUtc></StartTime><FrequencyChanges><FrequencyChange><Frequency dt:dt=""r8"">3020371</Frequency><Timestamp dt:dt=""r8"">99254816021</Timestamp><Current dt:dt=""r8"">0</Current><DateUtc dt:dt=""string"">2022-05-03T22:40:33Z</DateUtc></FrequencyChange></FrequencyChanges></Clock>\n"	000_R01_VB_allProc-131-1	60.001	1.0.0.232	1	471161035	Professional	2.0.10.356	2.0.10.356	05-03-2022	n/a	18:40:33	2.0.10.252	2	0	0	247721	20	247721	4000	-999999	419329	0	407719	0	Run5Proc	2	1	2	RunList	3	HighSmallED	8000	0	321720	0	321720	0	321720	0	B5HighSmallEDBlockProc	n/a	n/a	n/a	n/a	n/a	n/a	n/a	n/a	n/a	n/a	n/a	n/a	3.0	1.0	3.0	Run5BlockList	4	n/a	n/a	n/a	n/a	n/a	n/a	n/a	n/a	n/a	n/a	n/a	n/a	n/a	n/a	n/a	n/a	n/a	n/a	n/a	n/a	n/a	n/a	n/a	n/a	n/a	n/a	n/a	4.0	1.0	4.0	n/a	n/a	n/a	n/a	n/a	n/a	n/a	n/a	n/a	n/a	n/a	n/a	n/a	n/a	n/a	n/a	n/a	n/a	n/a	n/a	n/a	n/a	n/a	n/a	n/a	n/a	n/a	n/a	n/a	n/a	n/a	n/a	n/a	n/a	n/a	n/a	n/a	n/a	n/a	n/a	n/a	n/a	n/a	n/a	n/a	n/a	n/a	n/a	n/a	n/a	n/a	n/a	n/a	n/a	n/a	n/a	n/a	n/a	n/a	n/a	B5_04.jpg	500	0	315220	0	315220	0	TrialProc1	B5HighSmallEDBlockList	2500	0	312720	0	312720	0	312720	2500	d	915	313635	64.999
68	2.5	000_R01_VB_allProc	131	1	"<?xml version=""1.0""?>\n<Clock xmlns:dt=""urn:schemas-microsoft-com:datatypes""><Description dt:dt=""string"">E-Prime Primary Realtime Clock</Description><StartTime><Timestamp dt:dt=""int"">0</Timestamp><DateUtc dt:dt=""string"">2022-05-03T22:40:33Z</DateUtc></StartTime><FrequencyChanges><FrequencyChange><Frequency dt:dt=""r8"">3020371</Frequency><Timestamp dt:dt=""r8"">99254816021</Timestamp><Current dt:dt=""r8"">0</Current><DateUtc dt:dt=""string"">2022-05-03T22:40:33Z</DateUtc></FrequencyChange></FrequencyChanges></Clock>\n"	000_R01_VB_allProc-131-1	60.001	1.0.0.232	1	471161035	Professional	2.0.10.356	2.0.10.356	05-03-2022	n/a	18:40:33	2.0.10.252	2	0	0	247721	20	247721	4000	-999999	419329	0	407719	0	Run5Proc	2	1	2	RunList	3	HighSmallED	8000	0	321720	0	321720	0	321720	0	B5HighSmallEDBlockProc	n/a	n/a	n/a	n/a	n/a	n/a	n/a	n/a	n/a	n/a	n/a	n/a	3.0	1.0	3.0	Run5BlockList	5	n/a	n/a	n/a	n/a	n/a	n/a	n/a	n/a	n/a	n/a	n/a	n/a	n/a	n/a	n/a	n/a	n/a	n/a	n/a	n/a	n/a	n/a	n/a	n/a	n/a	n/a	n/a	5.0	1.0	5.0	n/a	n/a	n/a	n/a	n/a	n/a	n/a	n/a	n/a	n/a	n/a	n/a	n/a	n/a	n/a	n/a	n/a	n/a	n/a	n/a	n/a	n/a	n/a	n/a	n/a	n/a	n/a	n/a	n/a	n/a	n/a	n/a	n/a	n/a	n/a	n/a	n/a	n/a	n/a	n/a	n/a	n/a	n/a	n/a	n/a	n/a	n/a	n/a	n/a	n/a	n/a	n/a	n/a	n/a	n/a	n/a	n/a	n/a	n/a	n/a	B5_05.jpg	500	0	318220	0	318220	0	TrialProc1	B5HighSmallEDBlockList	2500	0	315720	0	315720	0	315720	2500	d	971	316691	67.999
71	2.5	000_R01_VB_allProc	131	1	"<?xml version=""1.0""?>\n<Clock xmlns:dt=""urn:schemas-microsoft-com:datatypes""><Description dt:dt=""string"">E-Prime Primary Realtime Clock</Description><StartTime><Timestamp dt:dt=""int"">0</Timestamp><DateUtc dt:dt=""string"">2022-05-03T22:40:33Z</DateUtc></StartTime><FrequencyChanges><FrequencyChange><Frequency dt:dt=""r8"">3020371</Frequency><Timestamp dt:dt=""r8"">99254816021</Timestamp><Current dt:dt=""r8"">0</Current><DateUtc dt:dt=""string"">2022-05-03T22:40:33Z</DateUtc></FrequencyChange></FrequencyChanges></Clock>\n"	000_R01_VB_allProc-131-1	60.001	1.0.0.232	1	471161035	Professional	2.0.10.356	2.0.10.356	05-03-2022	n/a	18:40:33	2.0.10.252	2	0	0	247721	20	247721	4000	-999999	419329	0	407719	0	Run5Proc	2	1	2	RunList	3	HighSmallED	8000	0	321720	0	321720	0	321720	0	B5HighSmallEDBlockProc	n/a	n/a	n/a	n/a	n/a	n/a	n/a	n/a	n/a	n/a	n/a	n/a	3.0	1.0	3.0	Run5BlockList	6	n/a	n/a	n/a	n/a	n/a	n/a	n/a	n/a	n/a	n/a	n/a	n/a	n/a	n/a	n/a	n/a	n/a	n/a	n/a	n/a	n/a	n/a	n/a	n/a	n/a	n/a	n/a	6.0	1.0	6.0	n/a	n/a	n/a	n/a	n/a	n/a	n/a	n/a	n/a	n/a	n/a	n/a	n/a	n/a	n/a	n/a	n/a	n/a	n/a	n/a	n/a	n/a	n/a	n/a	n/a	n/a	n/a	n/a	n/a	n/a	n/a	n/a	n/a	n/a	n/a	n/a	n/a	n/a	n/a	n/a	n/a	n/a	n/a	n/a	n/a	n/a	n/a	n/a	n/a	n/a	n/a	n/a	n/a	n/a	n/a	n/a	n/a	n/a	n/a	n/a	B5_06.jpg	500	0	321220	0	321220	0	TrialProc1	B5HighSmallEDBlockList	2500	0	318720	0	318720	0	318720	2500	d	1395	320115	70.999
82	2.5	000_R01_VB_allProc	131	1	"<?xml version=""1.0""?>\n<Clock xmlns:dt=""urn:schemas-microsoft-com:datatypes""><Description dt:dt=""string"">E-Prime Primary Realtime Clock</Description><StartTime><Timestamp dt:dt=""int"">0</Timestamp><DateUtc dt:dt=""string"">2022-05-03T22:40:33Z</DateUtc></StartTime><FrequencyChanges><FrequencyChange><Frequency dt:dt=""r8"">3020371</Frequency><Timestamp dt:dt=""r8"">99254816021</Timestamp><Current dt:dt=""r8"">0</Current><DateUtc dt:dt=""string"">2022-05-03T22:40:33Z</DateUtc></FrequencyChange></FrequencyChanges></Clock>\n"	000_R01_VB_allProc-131-1	60.001	1.0.0.232	1	471161035	Professional	2.0.10.356	2.0.10.356	05-03-2022	n/a	18:40:33	2.0.10.252	2	0	0	247721	20	247721	4000	-999999	419329	0	407719	0	Run5Proc	2	1	2	RunList	4	OfficeLarge	8000	0	347720	0	347720	0	347720	0	E5OfficeLargeBlockProc	n/a	n/a	n/a	n/a	n/a	n/a	n/a	n/a	n/a	n/a	n/a	n/a	4.0	1.0	4.0	Run5BlockList	1	n/a	n/a	n/a	n/a	n/a	n/a	n/a	n/a	n/a	n/a	n/a	n/a	n/a	n/a	n/a	n/a	n/a	n/a	n/a	n/a	n/a	n/a	n/a	n/a	n/a	n/a	n/a	n/a	n/a	n/a	n/a	n/a	n/a	n/a	n/a	n/a	n/a	n/a	n/a	n/a	n/a	n/a	n/a	n/a	n/a	n/a	n/a	n/a	n/a	n/a	n/a	n/a	n/a	n/a	n/a	n/a	n/a	n/a	n/a	n/a	n/a	n/a	n/a	n/a	n/a	n/a	n/a	n/a	n/a	n/a	n/a	n/a	1.0	1.0	1.0	n/a	n/a	n/a	n/a	n/a	n/a	n/a	n/a	n/a	n/a	n/a	n/a	n/a	n/a	n/a	E5_01.jpg	500	0	332220	0	332220	0	TrialProc1	E5OfficeLargeBlockList	2500	0	329720	0	329720	0	329720	2500	c	1507	331227	81.999
85	2.5	000_R01_VB_allProc	131	1	"<?xml version=""1.0""?>\n<Clock xmlns:dt=""urn:schemas-microsoft-com:datatypes""><Description dt:dt=""string"">E-Prime Primary Realtime Clock</Description><StartTime><Timestamp dt:dt=""int"">0</Timestamp><DateUtc dt:dt=""string"">2022-05-03T22:40:33Z</DateUtc></StartTime><FrequencyChanges><FrequencyChange><Frequency dt:dt=""r8"">3020371</Frequency><Timestamp dt:dt=""r8"">99254816021</Timestamp><Current dt:dt=""r8"">0</Current><DateUtc dt:dt=""string"">2022-05-03T22:40:33Z</DateUtc></FrequencyChange></FrequencyChanges></Clock>\n"	000_R01_VB_allProc-131-1	60.001	1.0.0.232	1	471161035	Professional	2.0.10.356	2.0.10.356	05-03-2022	n/a	18:40:33	2.0.10.252	2	0	0	247721	20	247721	4000	-999999	419329	0	407719	0	Run5Proc	2	1	2	RunList	4	OfficeLarge	8000	0	347720	0	347720	0	347720	0	E5OfficeLargeBlockProc	n/a	n/a	n/a	n/a	n/a	n/a	n/a	n/a	n/a	n/a	n/a	n/a	4.0	1.0	4.0	Run5BlockList	2	n/a	n/a	n/a	n/a	n/a	n/a	n/a	n/a	n/a	n/a	n/a	n/a	n/a	n/a	n/a	n/a	n/a	n/a	n/a	n/a	n/a	n/a	n/a	n/a	n/a	n/a	n/a	n/a	n/a	n/a	n/a	n/a	n/a	n/a	n/a	n/a	n/a	n/a	n/a	n/a	n/a	n/a	n/a	n/a	n/a	n/a	n/a	n/a	n/a	n/a	n/a	n/a	n/a	n/a	n/a	n/a	n/a	n/a	n/a	n/a	n/a	n/a	n/a	n/a	n/a	n/a	n/a	n/a	n/a	n/a	n/a	n/a	2.0	1.0	2.0	n/a	n/a	n/a	n/a	n/a	n/a	n/a	n/a	n/a	n/a	n/a	n/a	n/a	n/a	n/a	E5_02.jpg	500	0	335220	0	335220	0	TrialProc1	E5OfficeLargeBlockList	2500	0	332720	0	332720	0	332720	2500	c	891	333611	84.999
88	2.5	000_R01_VB_allProc	131	1	"<?xml version=""1.0""?>\n<Clock xmlns:dt=""urn:schemas-microsoft-com:datatypes""><Description dt:dt=""string"">E-Prime Primary Realtime Clock</Description><StartTime><Timestamp dt:dt=""int"">0</Timestamp><DateUtc dt:dt=""string"">2022-05-03T22:40:33Z</DateUtc></StartTime><FrequencyChanges><FrequencyChange><Frequency dt:dt=""r8"">3020371</Frequency><Timestamp dt:dt=""r8"">99254816021</Timestamp><Current dt:dt=""r8"">0</Current><DateUtc dt:dt=""string"">2022-05-03T22:40:33Z</DateUtc></FrequencyChange></FrequencyChanges></Clock>\n"	000_R01_VB_allProc-131-1	60.001	1.0.0.232	1	471161035	Professional	2.0.10.356	2.0.10.356	05-03-2022	n/a	18:40:33	2.0.10.252	2	0	0	247721	20	247721	4000	-999999	419329	0	407719	0	Run5Proc	2	1	2	RunList	4	OfficeLarge	8000	0	347720	0	347720	0	347720	0	E5OfficeLargeBlockProc	n/a	n/a	n/a	n/a	n/a	n/a	n/a	n/a	n/a	n/a	n/a	n/a	4.0	1.0	4.0	Run5BlockList	3	n/a	n/a	n/a	n/a	n/a	n/a	n/a	n/a	n/a	n/a	n/a	n/a	n/a	n/a	n/a	n/a	n/a	n/a	n/a	n/a	n/a	n/a	n/a	n/a	n/a	n/a	n/a	n/a	n/a	n/a	n/a	n/a	n/a	n/a	n/a	n/a	n/a	n/a	n/a	n/a	n/a	n/a	n/a	n/a	n/a	n/a	n/a	n/a	n/a	n/a	n/a	n/a	n/a	n/a	n/a	n/a	n/a	n/a	n/a	n/a	n/a	n/a	n/a	n/a	n/a	n/a	n/a	n/a	n/a	n/a	n/a	n/a	3.0	1.0	3.0	n/a	n/a	n/a	n/a	n/a	n/a	n/a	n/a	n/a	n/a	n/a	n/a	n/a	n/a	n/a	E5_03.jpg	500	0	338220	0	338220	0	TrialProc1	E5OfficeLargeBlockList	2500	0	335720	0	335720	0	335720	2500	c	1219	336939	87.999
91	2.5	000_R01_VB_allProc	131	1	"<?xml version=""1.0""?>\n<Clock xmlns:dt=""urn:schemas-microsoft-com:datatypes""><Description dt:dt=""string"">E-Prime Primary Realtime Clock</Description><StartTime><Timestamp dt:dt=""int"">0</Timestamp><DateUtc dt:dt=""string"">2022-05-03T22:40:33Z</DateUtc></StartTime><FrequencyChanges><FrequencyChange><Frequency dt:dt=""r8"">3020371</Frequency><Timestamp dt:dt=""r8"">99254816021</Timestamp><Current dt:dt=""r8"">0</Current><DateUtc dt:dt=""string"">2022-05-03T22:40:33Z</DateUtc></FrequencyChange></FrequencyChanges></Clock>\n"	000_R01_VB_allProc-131-1	60.001	1.0.0.232	1	471161035	Professional	2.0.10.356	2.0.10.356	05-03-2022	n/a	18:40:33	2.0.10.252	2	0	0	247721	20	247721	4000	-999999	419329	0	407719	0	Run5Proc	2	1	2	RunList	4	OfficeLarge	8000	0	347720	0	347720	0	347720	0	E5OfficeLargeBlockProc	n/a	n/a	n/a	n/a	n/a	n/a	n/a	n/a	n/a	n/a	n/a	n/a	4.0	1.0	4.0	Run5BlockList	4	n/a	n/a	n/a	n/a	n/a	n/a	n/a	n/a	n/a	n/a	n/a	n/a	n/a	n/a	n/a	n/a	n/a	n/a	n/a	n/a	n/a	n/a	n/a	n/a	n/a	n/a	n/a	n/a	n/a	n/a	n/a	n/a	n/a	n/a	n/a	n/a	n/a	n/a	n/a	n/a	n/a	n/a	n/a	n/a	n/a	n/a	n/a	n/a	n/a	n/a	n/a	n/a	n/a	n/a	n/a	n/a	n/a	n/a	n/a	n/a	n/a	n/a	n/a	n/a	n/a	n/a	n/a	n/a	n/a	n/a	n/a	n/a	4.0	1.0	4.0	n/a	n/a	n/a	n/a	n/a	n/a	n/a	n/a	n/a	n/a	n/a	n/a	n/a	n/a	n/a	E5_04.jpg	500	0	341220	0	341220	0	TrialProc1	E5OfficeLargeBlockList	2500	0	338720	0	338720	0	338720	2500	c	859	339579	90.999
94	2.5	000_R01_VB_allProc	131	1	"<?xml version=""1.0""?>\n<Clock xmlns:dt=""urn:schemas-microsoft-com:datatypes""><Description dt:dt=""string"">E-Prime Primary Realtime Clock</Description><StartTime><Timestamp dt:dt=""int"">0</Timestamp><DateUtc dt:dt=""string"">2022-05-03T22:40:33Z</DateUtc></StartTime><FrequencyChanges><FrequencyChange><Frequency dt:dt=""r8"">3020371</Frequency><Timestamp dt:dt=""r8"">99254816021</Timestamp><Current dt:dt=""r8"">0</Current><DateUtc dt:dt=""string"">2022-05-03T22:40:33Z</DateUtc></FrequencyChange></FrequencyChanges></Clock>\n"	000_R01_VB_allProc-131-1	60.001	1.0.0.232	1	471161035	Professional	2.0.10.356	2.0.10.356	05-03-2022	n/a	18:40:33	2.0.10.252	2	0	0	247721	20	247721	4000	-999999	419329	0	407719	0	Run5Proc	2	1	2	RunList	4	OfficeLarge	8000	0	347720	0	347720	0	347720	0	E5OfficeLargeBlockProc	n/a	n/a	n/a	n/a	n/a	n/a	n/a	n/a	n/a	n/a	n/a	n/a	4.0	1.0	4.0	Run5BlockList	5	n/a	n/a	n/a	n/a	n/a	n/a	n/a	n/a	n/a	n/a	n/a	n/a	n/a	n/a	n/a	n/a	n/a	n/a	n/a	n/a	n/a	n/a	n/a	n/a	n/a	n/a	n/a	n/a	n/a	n/a	n/a	n/a	n/a	n/a	n/a	n/a	n/a	n/a	n/a	n/a	n/a	n/a	n/a	n/a	n/a	n/a	n/a	n/a	n/a	n/a	n/a	n/a	n/a	n/a	n/a	n/a	n/a	n/a	n/a	n/a	n/a	n/a	n/a	n/a	n/a	n/a	n/a	n/a	n/a	n/a	n/a	n/a	5.0	1.0	5.0	n/a	n/a	n/a	n/a	n/a	n/a	n/a	n/a	n/a	n/a	n/a	n/a	n/a	n/a	n/a	E5_05.jpg	500	0	344220	0	344220	0	TrialProc1	E5OfficeLargeBlockList	2500	0	341720	0	341720	0	341720	2500	c	851	342571	93.999
97	2.5	000_R01_VB_allProc	131	1	"<?xml version=""1.0""?>\n<Clock xmlns:dt=""urn:schemas-microsoft-com:datatypes""><Description dt:dt=""string"">E-Prime Primary Realtime Clock</Description><StartTime><Timestamp dt:dt=""int"">0</Timestamp><DateUtc dt:dt=""string"">2022-05-03T22:40:33Z</DateUtc></StartTime><FrequencyChanges><FrequencyChange><Frequency dt:dt=""r8"">3020371</Frequency><Timestamp dt:dt=""r8"">99254816021</Timestamp><Current dt:dt=""r8"">0</Current><DateUtc dt:dt=""string"">2022-05-03T22:40:33Z</DateUtc></FrequencyChange></FrequencyChanges></Clock>\n"	000_R01_VB_allProc-131-1	60.001	1.0.0.232	1	471161035	Professional	2.0.10.356	2.0.10.356	05-03-2022	n/a	18:40:33	2.0.10.252	2	0	0	247721	20	247721	4000	-999999	419329	0	407719	0	Run5Proc	2	1	2	RunList	4	OfficeLarge	8000	0	347720	0	347720	0	347720	0	E5OfficeLargeBlockProc	n/a	n/a	n/a	n/a	n/a	n/a	n/a	n/a	n/a	n/a	n/a	n/a	4.0	1.0	4.0	Run5BlockList	6	n/a	n/a	n/a	n/a	n/a	n/a	n/a	n/a	n/a	n/a	n/a	n/a	n/a	n/a	n/a	n/a	n/a	n/a	n/a	n/a	n/a	n/a	n/a	n/a	n/a	n/a	n/a	n/a	n/a	n/a	n/a	n/a	n/a	n/a	n/a	n/a	n/a	n/a	n/a	n/a	n/a	n/a	n/a	n/a	n/a	n/a	n/a	n/a	n/a	n/a	n/a	n/a	n/a	n/a	n/a	n/a	n/a	n/a	n/a	n/a	n/a	n/a	n/a	n/a	n/a	n/a	n/a	n/a	n/a	n/a	n/a	n/a	6.0	1.0	6.0	n/a	n/a	n/a	n/a	n/a	n/a	n/a	n/a	n/a	n/a	n/a	n/a	n/a	n/a	n/a	E5_06.jpg	500	0	347220	0	347220	0	TrialProc1	E5OfficeLargeBlockList	2500	0	344720	0	344720	0	344720	2500	c	1315	346035	96.999
108	2.5	000_R01_VB_allProc	131	1	"<?xml version=""1.0""?>\n<Clock xmlns:dt=""urn:schemas-microsoft-com:datatypes""><Description dt:dt=""string"">E-Prime Primary Realtime Clock</Description><StartTime><Timestamp dt:dt=""int"">0</Timestamp><DateUtc dt:dt=""string"">2022-05-03T22:40:33Z</DateUtc></StartTime><FrequencyChanges><FrequencyChange><Frequency dt:dt=""r8"">3020371</Frequency><Timestamp dt:dt=""r8"">99254816021</Timestamp><Current dt:dt=""r8"">0</Current><DateUtc dt:dt=""string"">2022-05-03T22:40:33Z</DateUtc></FrequencyChange></FrequencyChanges></Clock>\n"	000_R01_VB_allProc-131-1	60.001	1.0.0.232	1	471161035	Professional	2.0.10.356	2.0.10.356	05-03-2022	n/a	18:40:33	2.0.10.252	2	0	0	247721	20	247721	4000	-999999	419329	0	407719	0	Run5Proc	2	1	2	RunList	5	HighLargeED	8000	0	373720	0	373719	0	373719	0	A5HighLargeEDBlockProc	n/a	n/a	n/a	n/a	n/a	n/a	n/a	n/a	n/a	n/a	n/a	n/a	5.0	1.0	5.0	Run5BlockList	1	n/a	n/a	n/a	n/a	n/a	n/a	n/a	n/a	n/a	n/a	n/a	n/a	1.0	1.0	1.0	n/a	n/a	n/a	n/a	n/a	n/a	n/a	n/a	n/a	n/a	n/a	n/a	n/a	n/a	n/a	n/a	n/a	n/a	n/a	n/a	n/a	n/a	n/a	n/a	n/a	n/a	n/a	n/a	n/a	n/a	n/a	n/a	n/a	n/a	n/a	n/a	n/a	n/a	n/a	n/a	n/a	n/a	n/a	n/a	n/a	n/a	n/a	n/a	n/a	n/a	n/a	n/a	n/a	n/a	n/a	n/a	n/a	n/a	n/a	n/a	n/a	n/a	n/a	n/a	n/a	n/a	n/a	n/a	n/a	n/a	n/a	n/a	n/a	n/a	n/a	A5_01.jpg	500	0	358220	0	358220	0	TrialProc1	A5HighLargeEDBlockList	2500	0	355720	0	355720	0	355720	2500	c	1483	357203	107.999
111	2.5	000_R01_VB_allProc	131	1	"<?xml version=""1.0""?>\n<Clock xmlns:dt=""urn:schemas-microsoft-com:datatypes""><Description dt:dt=""string"">E-Prime Primary Realtime Clock</Description><StartTime><Timestamp dt:dt=""int"">0</Timestamp><DateUtc dt:dt=""string"">2022-05-03T22:40:33Z</DateUtc></StartTime><FrequencyChanges><FrequencyChange><Frequency dt:dt=""r8"">3020371</Frequency><Timestamp dt:dt=""r8"">99254816021</Timestamp><Current dt:dt=""r8"">0</Current><DateUtc dt:dt=""string"">2022-05-03T22:40:33Z</DateUtc></FrequencyChange></FrequencyChanges></Clock>\n"	000_R01_VB_allProc-131-1	60.001	1.0.0.232	1	471161035	Professional	2.0.10.356	2.0.10.356	05-03-2022	n/a	18:40:33	2.0.10.252	2	0	0	247721	20	247721	4000	-999999	419329	0	407719	0	Run5Proc	2	1	2	RunList	5	HighLargeED	8000	0	373720	0	373719	0	373719	0	A5HighLargeEDBlockProc	n/a	n/a	n/a	n/a	n/a	n/a	n/a	n/a	n/a	n/a	n/a	n/a	5.0	1.0	5.0	Run5BlockList	2	n/a	n/a	n/a	n/a	n/a	n/a	n/a	n/a	n/a	n/a	n/a	n/a	2.0	1.0	2.0	n/a	n/a	n/a	n/a	n/a	n/a	n/a	n/a	n/a	n/a	n/a	n/a	n/a	n/a	n/a	n/a	n/a	n/a	n/a	n/a	n/a	n/a	n/a	n/a	n/a	n/a	n/a	n/a	n/a	n/a	n/a	n/a	n/a	n/a	n/a	n/a	n/a	n/a	n/a	n/a	n/a	n/a	n/a	n/a	n/a	n/a	n/a	n/a	n/a	n/a	n/a	n/a	n/a	n/a	n/a	n/a	n/a	n/a	n/a	n/a	n/a	n/a	n/a	n/a	n/a	n/a	n/a	n/a	n/a	n/a	n/a	n/a	n/a	n/a	n/a	A5_02.jpg	500	0	361220	0	361220	0	TrialProc1	A5HighLargeEDBlockList	2500	0	358720	0	358720	0	358720	2500	d	827	359547	110.999
114	2.5	000_R01_VB_allProc	131	1	"<?xml version=""1.0""?>\n<Clock xmlns:dt=""urn:schemas-microsoft-com:datatypes""><Description dt:dt=""string"">E-Prime Primary Realtime Clock</Description><StartTime><Timestamp dt:dt=""int"">0</Timestamp><DateUtc dt:dt=""string"">2022-05-03T22:40:33Z</DateUtc></StartTime><FrequencyChanges><FrequencyChange><Frequency dt:dt=""r8"">3020371</Frequency><Timestamp dt:dt=""r8"">99254816021</Timestamp><Current dt:dt=""r8"">0</Current><DateUtc dt:dt=""string"">2022-05-03T22:40:33Z</DateUtc></FrequencyChange></FrequencyChanges></Clock>\n"	000_R01_VB_allProc-131-1	60.001	1.0.0.232	1	471161035	Professional	2.0.10.356	2.0.10.356	05-03-2022	n/a	18:40:33	2.0.10.252	2	0	0	247721	20	247721	4000	-999999	419329	0	407719	0	Run5Proc	2	1	2	RunList	5	HighLargeED	8000	0	373720	0	373719	0	373719	0	A5HighLargeEDBlockProc	n/a	n/a	n/a	n/a	n/a	n/a	n/a	n/a	n/a	n/a	n/a	n/a	5.0	1.0	5.0	Run5BlockList	3	n/a	n/a	n/a	n/a	n/a	n/a	n/a	n/a	n/a	n/a	n/a	n/a	3.0	1.0	3.0	n/a	n/a	n/a	n/a	n/a	n/a	n/a	n/a	n/a	n/a	n/a	n/a	n/a	n/a	n/a	n/a	n/a	n/a	n/a	n/a	n/a	n/a	n/a	n/a	n/a	n/a	n/a	n/a	n/a	n/a	n/a	n/a	n/a	n/a	n/a	n/a	n/a	n/a	n/a	n/a	n/a	n/a	n/a	n/a	n/a	n/a	n/a	n/a	n/a	n/a	n/a	n/a	n/a	n/a	n/a	n/a	n/a	n/a	n/a	n/a	n/a	n/a	n/a	n/a	n/a	n/a	n/a	n/a	n/a	n/a	n/a	n/a	n/a	n/a	n/a	A5_03.jpg	500	1	364220	-1	364219	0	TrialProc1	A5HighLargeEDBlockList	2500	0	361720	0	361720	0	361720	2499	d	826	362546	113.999
117	2.5	000_R01_VB_allProc	131	1	"<?xml version=""1.0""?>\n<Clock xmlns:dt=""urn:schemas-microsoft-com:datatypes""><Description dt:dt=""string"">E-Prime Primary Realtime Clock</Description><StartTime><Timestamp dt:dt=""int"">0</Timestamp><DateUtc dt:dt=""string"">2022-05-03T22:40:33Z</DateUtc></StartTime><FrequencyChanges><FrequencyChange><Frequency dt:dt=""r8"">3020371</Frequency><Timestamp dt:dt=""r8"">99254816021</Timestamp><Current dt:dt=""r8"">0</Current><DateUtc dt:dt=""string"">2022-05-03T22:40:33Z</DateUtc></FrequencyChange></FrequencyChanges></Clock>\n"	000_R01_VB_allProc-131-1	60.001	1.0.0.232	1	471161035	Professional	2.0.10.356	2.0.10.356	05-03-2022	n/a	18:40:33	2.0.10.252	2	0	0	247721	20	247721	4000	-999999	419329	0	407719	0	Run5Proc	2	1	2	RunList	5	HighLargeED	8000	0	373720	0	373719	0	373719	0	A5HighLargeEDBlockProc	n/a	n/a	n/a	n/a	n/a	n/a	n/a	n/a	n/a	n/a	n/a	n/a	5.0	1.0	5.0	Run5BlockList	4	n/a	n/a	n/a	n/a	n/a	n/a	n/a	n/a	n/a	n/a	n/a	n/a	4.0	1.0	4.0	n/a	n/a	n/a	n/a	n/a	n/a	n/a	n/a	n/a	n/a	n/a	n/a	n/a	n/a	n/a	n/a	n/a	n/a	n/a	n/a	n/a	n/a	n/a	n/a	n/a	n/a	n/a	n/a	n/a	n/a	n/a	n/a	n/a	n/a	n/a	n/a	n/a	n/a	n/a	n/a	n/a	n/a	n/a	n/a	n/a	n/a	n/a	n/a	n/a	n/a	n/a	n/a	n/a	n/a	n/a	n/a	n/a	n/a	n/a	n/a	n/a	n/a	n/a	n/a	n/a	n/a	n/a	n/a	n/a	n/a	n/a	n/a	n/a	n/a	n/a	A5_04.jpg	500	1	367220	0	367219	0	TrialProc1	A5HighLargeEDBlockList	2500	1	364720	1	364720	0	364719	2500	d	1283	366002	116.998
120	2.5	000_R01_VB_allProc	131	1	"<?xml version=""1.0""?>\n<Clock xmlns:dt=""urn:schemas-microsoft-com:datatypes""><Description dt:dt=""string"">E-Prime Primary Realtime Clock</Description><StartTime><Timestamp dt:dt=""int"">0</Timestamp><DateUtc dt:dt=""string"">2022-05-03T22:40:33Z</DateUtc></StartTime><FrequencyChanges><FrequencyChange><Frequency dt:dt=""r8"">3020371</Frequency><Timestamp dt:dt=""r8"">99254816021</Timestamp><Current dt:dt=""r8"">0</Current><DateUtc dt:dt=""string"">2022-05-03T22:40:33Z</DateUtc></FrequencyChange></FrequencyChanges></Clock>\n"	000_R01_VB_allProc-131-1	60.001	1.0.0.232	1	471161035	Professional	2.0.10.356	2.0.10.356	05-03-2022	n/a	18:40:33	2.0.10.252	2	0	0	247721	20	247721	4000	-999999	419329	0	407719	0	Run5Proc	2	1	2	RunList	5	HighLargeED	8000	0	373720	0	373719	0	373719	0	A5HighLargeEDBlockProc	n/a	n/a	n/a	n/a	n/a	n/a	n/a	n/a	n/a	n/a	n/a	n/a	5.0	1.0	5.0	Run5BlockList	5	n/a	n/a	n/a	n/a	n/a	n/a	n/a	n/a	n/a	n/a	n/a	n/a	5.0	1.0	5.0	n/a	n/a	n/a	n/a	n/a	n/a	n/a	n/a	n/a	n/a	n/a	n/a	n/a	n/a	n/a	n/a	n/a	n/a	n/a	n/a	n/a	n/a	n/a	n/a	n/a	n/a	n/a	n/a	n/a	n/a	n/a	n/a	n/a	n/a	n/a	n/a	n/a	n/a	n/a	n/a	n/a	n/a	n/a	n/a	n/a	n/a	n/a	n/a	n/a	n/a	n/a	n/a	n/a	n/a	n/a	n/a	n/a	n/a	n/a	n/a	n/a	n/a	n/a	n/a	n/a	n/a	n/a	n/a	n/a	n/a	n/a	n/a	n/a	n/a	n/a	A5_05.jpg	500	1	370220	0	370219	0	TrialProc1	A5HighLargeEDBlockList	2500	1	367720	1	367720	0	367719	2500	c	1083	368802	119.998
123	2.5	000_R01_VB_allProc	131	1	"<?xml version=""1.0""?>\n<Clock xmlns:dt=""urn:schemas-microsoft-com:datatypes""><Description dt:dt=""string"">E-Prime Primary Realtime Clock</Description><StartTime><Timestamp dt:dt=""int"">0</Timestamp><DateUtc dt:dt=""string"">2022-05-03T22:40:33Z</DateUtc></StartTime><FrequencyChanges><FrequencyChange><Frequency dt:dt=""r8"">3020371</Frequency><Timestamp dt:dt=""r8"">99254816021</Timestamp><Current dt:dt=""r8"">0</Current><DateUtc dt:dt=""string"">2022-05-03T22:40:33Z</DateUtc></FrequencyChange></FrequencyChanges></Clock>\n"	000_R01_VB_allProc-131-1	60.001	1.0.0.232	1	471161035	Professional	2.0.10.356	2.0.10.356	05-03-2022	n/a	18:40:33	2.0.10.252	2	0	0	247721	20	247721	4000	-999999	419329	0	407719	0	Run5Proc	2	1	2	RunList	5	HighLargeED	8000	0	373720	0	373719	0	373719	0	A5HighLargeEDBlockProc	n/a	n/a	n/a	n/a	n/a	n/a	n/a	n/a	n/a	n/a	n/a	n/a	5.0	1.0	5.0	Run5BlockList	6	n/a	n/a	n/a	n/a	n/a	n/a	n/a	n/a	n/a	n/a	n/a	n/a	6.0	1.0	6.0	n/a	n/a	n/a	n/a	n/a	n/a	n/a	n/a	n/a	n/a	n/a	n/a	n/a	n/a	n/a	n/a	n/a	n/a	n/a	n/a	n/a	n/a	n/a	n/a	n/a	n/a	n/a	n/a	n/a	n/a	n/a	n/a	n/a	n/a	n/a	n/a	n/a	n/a	n/a	n/a	n/a	n/a	n/a	n/a	n/a	n/a	n/a	n/a	n/a	n/a	n/a	n/a	n/a	n/a	n/a	n/a	n/a	n/a	n/a	n/a	n/a	n/a	n/a	n/a	n/a	n/a	n/a	n/a	n/a	n/a	n/a	n/a	n/a	n/a	n/a	A5_06.jpg	500	0	373219	0	373219	0	TrialProc1	A5HighLargeEDBlockList	2500	0	370720	0	370719	0	370719	2500	c	1219	371938	122.998
134	2.5	000_R01_VB_allProc	131	1	"<?xml version=""1.0""?>\n<Clock xmlns:dt=""urn:schemas-microsoft-com:datatypes""><Description dt:dt=""string"">E-Prime Primary Realtime Clock</Description><StartTime><Timestamp dt:dt=""int"">0</Timestamp><DateUtc dt:dt=""string"">2022-05-03T22:40:33Z</DateUtc></StartTime><FrequencyChanges><FrequencyChange><Frequency dt:dt=""r8"">3020371</Frequency><Timestamp dt:dt=""r8"">99254816021</Timestamp><Current dt:dt=""r8"">0</Current><DateUtc dt:dt=""string"">2022-05-03T22:40:33Z</DateUtc></FrequencyChange></FrequencyChanges></Clock>\n"	000_R01_VB_allProc-131-1	60.001	1.0.0.232	1	471161035	Professional	2.0.10.356	2.0.10.356	05-03-2022	n/a	18:40:33	2.0.10.252	2	0	0	247721	20	247721	4000	-999999	419329	0	407719	0	Run5Proc	2	1	2	RunList	6	LowSmallED	8000	0	399719	0	399719	0	399719	0	D5LowSmallEDBlockProc	n/a	n/a	n/a	n/a	n/a	n/a	n/a	n/a	n/a	n/a	n/a	n/a	6.0	1.0	6.0	Run5BlockList	1	n/a	n/a	n/a	n/a	n/a	n/a	n/a	n/a	n/a	n/a	n/a	n/a	n/a	n/a	n/a	n/a	n/a	n/a	n/a	n/a	n/a	n/a	n/a	n/a	n/a	n/a	n/a	n/a	n/a	n/a	n/a	n/a	n/a	n/a	n/a	n/a	n/a	n/a	n/a	n/a	n/a	n/a	n/a	n/a	n/a	n/a	n/a	n/a	n/a	n/a	n/a	n/a	n/a	n/a	n/a	n/a	n/a	1.0	1.0	1.0	n/a	n/a	n/a	n/a	n/a	n/a	n/a	n/a	n/a	n/a	n/a	n/a	n/a	n/a	n/a	n/a	n/a	n/a	n/a	n/a	n/a	n/a	n/a	n/a	n/a	n/a	n/a	n/a	n/a	n/a	D5_01.jpg	500	0	384219	0	384219	0	TrialProc1	D5LowSmallEDBlockList	2500	0	381719	0	381719	0	381719	2500	c	1315	383034	133.998
137	2.5	000_R01_VB_allProc	131	1	"<?xml version=""1.0""?>\n<Clock xmlns:dt=""urn:schemas-microsoft-com:datatypes""><Description dt:dt=""string"">E-Prime Primary Realtime Clock</Description><StartTime><Timestamp dt:dt=""int"">0</Timestamp><DateUtc dt:dt=""string"">2022-05-03T22:40:33Z</DateUtc></StartTime><FrequencyChanges><FrequencyChange><Frequency dt:dt=""r8"">3020371</Frequency><Timestamp dt:dt=""r8"">99254816021</Timestamp><Current dt:dt=""r8"">0</Current><DateUtc dt:dt=""string"">2022-05-03T22:40:33Z</DateUtc></FrequencyChange></FrequencyChanges></Clock>\n"	000_R01_VB_allProc-131-1	60.001	1.0.0.232	1	471161035	Professional	2.0.10.356	2.0.10.356	05-03-2022	n/a	18:40:33	2.0.10.252	2	0	0	247721	20	247721	4000	-999999	419329	0	407719	0	Run5Proc	2	1	2	RunList	6	LowSmallED	8000	0	399719	0	399719	0	399719	0	D5LowSmallEDBlockProc	n/a	n/a	n/a	n/a	n/a	n/a	n/a	n/a	n/a	n/a	n/a	n/a	6.0	1.0	6.0	Run5BlockList	2	n/a	n/a	n/a	n/a	n/a	n/a	n/a	n/a	n/a	n/a	n/a	n/a	n/a	n/a	n/a	n/a	n/a	n/a	n/a	n/a	n/a	n/a	n/a	n/a	n/a	n/a	n/a	n/a	n/a	n/a	n/a	n/a	n/a	n/a	n/a	n/a	n/a	n/a	n/a	n/a	n/a	n/a	n/a	n/a	n/a	n/a	n/a	n/a	n/a	n/a	n/a	n/a	n/a	n/a	n/a	n/a	n/a	2.0	1.0	2.0	n/a	n/a	n/a	n/a	n/a	n/a	n/a	n/a	n/a	n/a	n/a	n/a	n/a	n/a	n/a	n/a	n/a	n/a	n/a	n/a	n/a	n/a	n/a	n/a	n/a	n/a	n/a	n/a	n/a	n/a	D5_02.jpg	500	0	387219	0	387219	0	TrialProc1	D5LowSmallEDBlockList	2500	0	384719	0	384719	0	384719	2500	d	1059	385778	136.998
140	2.5	000_R01_VB_allProc	131	1	"<?xml version=""1.0""?>\n<Clock xmlns:dt=""urn:schemas-microsoft-com:datatypes""><Description dt:dt=""string"">E-Prime Primary Realtime Clock</Description><StartTime><Timestamp dt:dt=""int"">0</Timestamp><DateUtc dt:dt=""string"">2022-05-03T22:40:33Z</DateUtc></StartTime><FrequencyChanges><FrequencyChange><Frequency dt:dt=""r8"">3020371</Frequency><Timestamp dt:dt=""r8"">99254816021</Timestamp><Current dt:dt=""r8"">0</Current><DateUtc dt:dt=""string"">2022-05-03T22:40:33Z</DateUtc></FrequencyChange></FrequencyChanges></Clock>\n"	000_R01_VB_allProc-131-1	60.001	1.0.0.232	1	471161035	Professional	2.0.10.356	2.0.10.356	05-03-2022	n/a	18:40:33	2.0.10.252	2	0	0	247721	20	247721	4000	-999999	419329	0	407719	0	Run5Proc	2	1	2	RunList	6	LowSmallED	8000	0	399719	0	399719	0	399719	0	D5LowSmallEDBlockProc	n/a	n/a	n/a	n/a	n/a	n/a	n/a	n/a	n/a	n/a	n/a	n/a	6.0	1.0	6.0	Run5BlockList	3	n/a	n/a	n/a	n/a	n/a	n/a	n/a	n/a	n/a	n/a	n/a	n/a	n/a	n/a	n/a	n/a	n/a	n/a	n/a	n/a	n/a	n/a	n/a	n/a	n/a	n/a	n/a	n/a	n/a	n/a	n/a	n/a	n/a	n/a	n/a	n/a	n/a	n/a	n/a	n/a	n/a	n/a	n/a	n/a	n/a	n/a	n/a	n/a	n/a	n/a	n/a	n/a	n/a	n/a	n/a	n/a	n/a	3.0	1.0	3.0	n/a	n/a	n/a	n/a	n/a	n/a	n/a	n/a	n/a	n/a	n/a	n/a	n/a	n/a	n/a	n/a	n/a	n/a	n/a	n/a	n/a	n/a	n/a	n/a	n/a	n/a	n/a	n/a	n/a	n/a	D5_03.jpg	500	0	390219	0	390219	0	TrialProc1	D5LowSmallEDBlockList	2500	0	387719	0	387719	0	387719	2500	c	1675	389394	139.998
143	2.5	000_R01_VB_allProc	131	1	"<?xml version=""1.0""?>\n<Clock xmlns:dt=""urn:schemas-microsoft-com:datatypes""><Description dt:dt=""string"">E-Prime Primary Realtime Clock</Description><StartTime><Timestamp dt:dt=""int"">0</Timestamp><DateUtc dt:dt=""string"">2022-05-03T22:40:33Z</DateUtc></StartTime><FrequencyChanges><FrequencyChange><Frequency dt:dt=""r8"">3020371</Frequency><Timestamp dt:dt=""r8"">99254816021</Timestamp><Current dt:dt=""r8"">0</Current><DateUtc dt:dt=""string"">2022-05-03T22:40:33Z</DateUtc></FrequencyChange></FrequencyChanges></Clock>\n"	000_R01_VB_allProc-131-1	60.001	1.0.0.232	1	471161035	Professional	2.0.10.356	2.0.10.356	05-03-2022	n/a	18:40:33	2.0.10.252	2	0	0	247721	20	247721	4000	-999999	419329	0	407719	0	Run5Proc	2	1	2	RunList	6	LowSmallED	8000	0	399719	0	399719	0	399719	0	D5LowSmallEDBlockProc	n/a	n/a	n/a	n/a	n/a	n/a	n/a	n/a	n/a	n/a	n/a	n/a	6.0	1.0	6.0	Run5BlockList	4	n/a	n/a	n/a	n/a	n/a	n/a	n/a	n/a	n/a	n/a	n/a	n/a	n/a	n/a	n/a	n/a	n/a	n/a	n/a	n/a	n/a	n/a	n/a	n/a	n/a	n/a	n/a	n/a	n/a	n/a	n/a	n/a	n/a	n/a	n/a	n/a	n/a	n/a	n/a	n/a	n/a	n/a	n/a	n/a	n/a	n/a	n/a	n/a	n/a	n/a	n/a	n/a	n/a	n/a	n/a	n/a	n/a	4.0	1.0	4.0	n/a	n/a	n/a	n/a	n/a	n/a	n/a	n/a	n/a	n/a	n/a	n/a	n/a	n/a	n/a	n/a	n/a	n/a	n/a	n/a	n/a	n/a	n/a	n/a	n/a	n/a	n/a	n/a	n/a	n/a	D5_04.jpg	500	0	393219	0	393219	0	TrialProc1	D5LowSmallEDBlockList	2500	0	390719	0	390719	0	390719	2500	d	1211	391930	142.998
146	2.5	000_R01_VB_allProc	131	1	"<?xml version=""1.0""?>\n<Clock xmlns:dt=""urn:schemas-microsoft-com:datatypes""><Description dt:dt=""string"">E-Prime Primary Realtime Clock</Description><StartTime><Timestamp dt:dt=""int"">0</Timestamp><DateUtc dt:dt=""string"">2022-05-03T22:40:33Z</DateUtc></StartTime><FrequencyChanges><FrequencyChange><Frequency dt:dt=""r8"">3020371</Frequency><Timestamp dt:dt=""r8"">99254816021</Timestamp><Current dt:dt=""r8"">0</Current><DateUtc dt:dt=""string"">2022-05-03T22:40:33Z</DateUtc></FrequencyChange></FrequencyChanges></Clock>\n"	000_R01_VB_allProc-131-1	60.001	1.0.0.232	1	471161035	Professional	2.0.10.356	2.0.10.356	05-03-2022	n/a	18:40:33	2.0.10.252	2	0	0	247721	20	247721	4000	-999999	419329	0	407719	0	Run5Proc	2	1	2	RunList	6	LowSmallED	8000	0	399719	0	399719	0	399719	0	D5LowSmallEDBlockProc	n/a	n/a	n/a	n/a	n/a	n/a	n/a	n/a	n/a	n/a	n/a	n/a	6.0	1.0	6.0	Run5BlockList	5	n/a	n/a	n/a	n/a	n/a	n/a	n/a	n/a	n/a	n/a	n/a	n/a	n/a	n/a	n/a	n/a	n/a	n/a	n/a	n/a	n/a	n/a	n/a	n/a	n/a	n/a	n/a	n/a	n/a	n/a	n/a	n/a	n/a	n/a	n/a	n/a	n/a	n/a	n/a	n/a	n/a	n/a	n/a	n/a	n/a	n/a	n/a	n/a	n/a	n/a	n/a	n/a	n/a	n/a	n/a	n/a	n/a	5.0	1.0	5.0	n/a	n/a	n/a	n/a	n/a	n/a	n/a	n/a	n/a	n/a	n/a	n/a	n/a	n/a	n/a	n/a	n/a	n/a	n/a	n/a	n/a	n/a	n/a	n/a	n/a	n/a	n/a	n/a	n/a	n/a	D5_05.jpg	500	0	396219	0	396219	0	TrialProc1	D5LowSmallEDBlockList	2500	0	393719	0	393719	0	393719	2500	d	1139	394858	145.998
149	2.5	000_R01_VB_allProc	131	1	"<?xml version=""1.0""?>\n<Clock xmlns:dt=""urn:schemas-microsoft-com:datatypes""><Description dt:dt=""string"">E-Prime Primary Realtime Clock</Description><StartTime><Timestamp dt:dt=""int"">0</Timestamp><DateUtc dt:dt=""string"">2022-05-03T22:40:33Z</DateUtc></StartTime><FrequencyChanges><FrequencyChange><Frequency dt:dt=""r8"">3020371</Frequency><Timestamp dt:dt=""r8"">99254816021</Timestamp><Current dt:dt=""r8"">0</Current><DateUtc dt:dt=""string"">2022-05-03T22:40:33Z</DateUtc></FrequencyChange></FrequencyChanges></Clock>\n"	000_R01_VB_allProc-131-1	60.001	1.0.0.232	1	471161035	Professional	2.0.10.356	2.0.10.356	05-03-2022	n/a	18:40:33	2.0.10.252	2	0	0	247721	20	247721	4000	-999999	419329	0	407719	0	Run5Proc	2	1	2	RunList	6	LowSmallED	8000	0	399719	0	399719	0	399719	0	D5LowSmallEDBlockProc	n/a	n/a	n/a	n/a	n/a	n/a	n/a	n/a	n/a	n/a	n/a	n/a	6.0	1.0	6.0	Run5BlockList	6	n/a	n/a	n/a	n/a	n/a	n/a	n/a	n/a	n/a	n/a	n/a	n/a	n/a	n/a	n/a	n/a	n/a	n/a	n/a	n/a	n/a	n/a	n/a	n/a	n/a	n/a	n/a	n/a	n/a	n/a	n/a	n/a	n/a	n/a	n/a	n/a	n/a	n/a	n/a	n/a	n/a	n/a	n/a	n/a	n/a	n/a	n/a	n/a	n/a	n/a	n/a	n/a	n/a	n/a	n/a	n/a	n/a	6.0	1.0	6.0	n/a	n/a	n/a	n/a	n/a	n/a	n/a	n/a	n/a	n/a	n/a	n/a	n/a	n/a	n/a	n/a	n/a	n/a	n/a	n/a	n/a	n/a	n/a	n/a	n/a	n/a	n/a	n/a	n/a	n/a	D5_06.jpg	500	0	399219	0	399219	0	TrialProc1	D5LowSmallEDBlockList	2500	0	396719	0	396719	0	396719	2500	d	1723	398442	148.998
