onset	duration	experiment_name	sub	ses	clock_information	datafile_basename	display_refreshrate	experiment_version	group	randomseed	runtime_capabilities	runtime_version	runtimeversionexpected	session_date	session_start_date_time_utc	session_time	studio_version	block	fixation2trs_durationerror	fixation2trs_offsetdelay	fixation2trs_offsettime	fixation2trs_onsetdelay	fixation2trs_onsettime	fixation2trs_onsettoonsettime	goodwork_durationerror	goodwork_finishtime	goodwork_onsetdelay	goodwork_onsettime	goodwork_onsettoonsettime	procedure_block	runlist	runlist_cycle	runlist_sample	running_block	trial	condition	interblockinterval_duration	interblockinterval_durationerror	interblockinterval_finishtime	interblockinterval_offsetdelay	interblockinterval_offsettime	interblockinterval_onsetdelay	interblockinterval_onsettime	interblockinterval_onsettoonsettime	procedure_trial	run1blocklist	run1blocklist_cycle	run1blocklist_sample	run2blocklist	run2blocklist_cycle	run2blocklist_sample	run3blocklist	run3blocklist_cycle	run3blocklist_sample	run4blocklist	run4blocklist_cycle	run4blocklist_sample	run5blocklist	run5blocklist_cycle	run5blocklist_sample	running_trial	subtrial	a1highlargeedblocklist	a1highlargeedblocklist_cycle	a1highlargeedblocklist_sample	a2highlargeedblocklist	a2highlargeedblocklist_cycle	a2highlargeedblocklist_sample	a3highlargeedblocklist	a3highlargeedblocklist_cycle	a3highlargeedblocklist_sample	a4highlargeedblocklist	a4highlargeedblocklist_cycle	a4highlargeedblocklist_sample	a5highlargeedblocklist	a5highlargeedblocklist_cycle	a5highlargeedblocklist_sample	b1highsmalledblocklist	b1highsmalledblocklist_cycle	b1highsmalledblocklist_sample	b2highsmalledblocklist	b2highsmalledblocklist_cycle	b2highsmalledblocklist_sample	b3highsmalledblocklist	b3highsmalledblocklist_cycle	b3highsmalledblocklist_sample	b4highsmalledblocklist	b4highsmalledblocklist_cycle	b4highsmalledblocklist_sample	b5highsmalledblocklist	b5highsmalledblocklist_cycle	b5highsmalledblocklist_sample	c1lowlargeedblocklist	c1lowlargeedblocklist_cycle	c1lowlargeedblocklist_sample	c2lowlargeedblocklist	c2lowlargeedblocklist_cycle	c2lowlargeedblocklist_sample	c3lowlargeedblocklist	c3lowlargeedblocklist_cycle	c3lowlargeedblocklist_sample	c4lowlargeedblocklist	c4lowlargeedblocklist_cycle	c4lowlargeedblocklist_sample	c5lowlargeedblocklist	c5lowlargeedblocklist_cycle	c5lowlargeedblocklist_sample	d1lowsmalledblocklist	d1lowsmalledblocklist_cycle	d1lowsmalledblocklist_sample	d2highlargeedblocklist	d2highlargeedblocklist_cycle	d2highlargeedblocklist_sample	d3lowsmalledblocklist	d3lowsmalledblocklist_cycle	d3lowsmalledblocklist_sample	d4lowsmalledblocklist	d4lowsmalledblocklist_cycle	d4lowsmalledblocklist_sample	d5lowsmalledblocklist	d5lowsmalledblocklist_cycle	d5lowsmalledblocklist_sample	e1officelargeblocklist	e1officelargeblocklist_cycle	e1officelargeblocklist_sample	e2officelargeblocklist	e2officelargeblocklist_cycle	e2officelargeblocklist_sample	e3officelargeblocklist	e3officelargeblocklist_cycle	e3officelargeblocklist_sample	e4officelargeblocklist	e4officelargeblocklist_cycle	e4officelargeblocklist_sample	e5officelargeblocklist	e5officelargeblocklist_cycle	e5officelargeblocklist_sample	f1officesmallblocklist	f1officesmallblocklist_cycle	f1officesmallblocklist_sample	f2officesmallblocklist	f2officesmallblocklist_cycle	f2officesmallblocklist_sample	f3officesmallblocklist	f3officesmallblocklist_cycle	f3officesmallblocklist_sample	f4officesmallblocklist	f4officesmallblocklist_cycle	f4officesmallblocklist_sample	f5officesmallblocklist	f5officesmallblocklist_cycle	f5officesmallblocklist_sample	filename	isi_duration	isi_durationerror	isi_finishtime	isi_onsetdelay	isi_onsettime	isi_onsettoonsettime	procedure_subtrial	running_subtrial	stimslide_duration	stimslide_durationerror	stimslide_finishtime	stimslide_offsetdelay	stimslide_offsettime	stimslide_onsetdelay	stimslide_onsettime	stimslide_onsettoonsettime	stimslide_resp	stimslide_rt	stimslide_rttime	onset_unrounded
4	2.5	000_R01_VB_allProc	74	1	"<?xml version=""1.0""?>\n<Clock xmlns:dt=""urn:schemas-microsoft-com:datatypes""><Description dt:dt=""string"">E-Prime Primary Realtime Clock</Description><StartTime><Timestamp dt:dt=""int"">0</Timestamp><DateUtc dt:dt=""string"">2019-09-04T22:17:07Z</DateUtc></StartTime><FrequencyChanges><FrequencyChange><Frequency dt:dt=""r8"">3020380</Frequency><Timestamp dt:dt=""r8"">1854349520219</Timestamp><Current dt:dt=""r8"">0</Current><DateUtc dt:dt=""string"">2019-09-04T22:17:07Z</DateUtc></FrequencyChange></FrequencyChanges></Clock>\n"	000_R01_VB_allProc-74-1	60.023	1.0.0.185	1	-1075782654	Professional	2.0.10.356	2.0.10.356	09-04-2019	n/a	18:17:07	2.0.10.252	5	0	0	998983	14	998983	3998	-999999	1165557	-3	1159191	0	Run1Proc	5	1	5	RunList	1	HighLargeED	8000	0	1020975	0	1020975	0	1020975	0	A1HighLargeEDBlockProc	1.0	1.0	1.0	n/a	n/a	n/a	n/a	n/a	n/a	n/a	n/a	n/a	n/a	n/a	n/a	Run1BlockList	1	1.0	1.0	1.0	n/a	n/a	n/a	n/a	n/a	n/a	n/a	n/a	n/a	n/a	n/a	n/a	n/a	n/a	n/a	n/a	n/a	n/a	n/a	n/a	n/a	n/a	n/a	n/a	n/a	n/a	n/a	n/a	n/a	n/a	n/a	n/a	n/a	n/a	n/a	n/a	n/a	n/a	n/a	n/a	n/a	n/a	n/a	n/a	n/a	n/a	n/a	n/a	n/a	n/a	n/a	n/a	n/a	n/a	n/a	n/a	n/a	n/a	n/a	n/a	n/a	n/a	n/a	n/a	n/a	n/a	n/a	n/a	n/a	n/a	n/a	n/a	n/a	n/a	n/a	n/a	n/a	n/a	n/a	n/a	n/a	n/a	n/a	n/a	n/a	n/a	n/a	A1_01.jpg	500	0	1005480	-1	1005480	0	TrialProc1	A1HighLargeEDBlockList	2500	0	1002981	0	1002981	-2	1002981	2499	d	2010	1004991	4.0
7	2.5	000_R01_VB_allProc	74	1	"<?xml version=""1.0""?>\n<Clock xmlns:dt=""urn:schemas-microsoft-com:datatypes""><Description dt:dt=""string"">E-Prime Primary Realtime Clock</Description><StartTime><Timestamp dt:dt=""int"">0</Timestamp><DateUtc dt:dt=""string"">2019-09-04T22:17:07Z</DateUtc></StartTime><FrequencyChanges><FrequencyChange><Frequency dt:dt=""r8"">3020380</Frequency><Timestamp dt:dt=""r8"">1854349520219</Timestamp><Current dt:dt=""r8"">0</Current><DateUtc dt:dt=""string"">2019-09-04T22:17:07Z</DateUtc></FrequencyChange></FrequencyChanges></Clock>\n"	000_R01_VB_allProc-74-1	60.023	1.0.0.185	1	-1075782654	Professional	2.0.10.356	2.0.10.356	09-04-2019	n/a	18:17:07	2.0.10.252	5	0	0	998983	14	998983	3998	-999999	1165557	-3	1159191	0	Run1Proc	5	1	5	RunList	1	HighLargeED	8000	0	1020975	0	1020975	0	1020975	0	A1HighLargeEDBlockProc	1.0	1.0	1.0	n/a	n/a	n/a	n/a	n/a	n/a	n/a	n/a	n/a	n/a	n/a	n/a	Run1BlockList	2	2.0	1.0	2.0	n/a	n/a	n/a	n/a	n/a	n/a	n/a	n/a	n/a	n/a	n/a	n/a	n/a	n/a	n/a	n/a	n/a	n/a	n/a	n/a	n/a	n/a	n/a	n/a	n/a	n/a	n/a	n/a	n/a	n/a	n/a	n/a	n/a	n/a	n/a	n/a	n/a	n/a	n/a	n/a	n/a	n/a	n/a	n/a	n/a	n/a	n/a	n/a	n/a	n/a	n/a	n/a	n/a	n/a	n/a	n/a	n/a	n/a	n/a	n/a	n/a	n/a	n/a	n/a	n/a	n/a	n/a	n/a	n/a	n/a	n/a	n/a	n/a	n/a	n/a	n/a	n/a	n/a	n/a	n/a	n/a	n/a	n/a	n/a	n/a	n/a	n/a	A1_02.jpg	500	0	1008479	-1	1008479	0	TrialProc1	A1HighLargeEDBlockList	2500	0	1005980	0	1005980	0	1005980	2499	d	1043	1007023	6.9990000000000006
10	2.5	000_R01_VB_allProc	74	1	"<?xml version=""1.0""?>\n<Clock xmlns:dt=""urn:schemas-microsoft-com:datatypes""><Description dt:dt=""string"">E-Prime Primary Realtime Clock</Description><StartTime><Timestamp dt:dt=""int"">0</Timestamp><DateUtc dt:dt=""string"">2019-09-04T22:17:07Z</DateUtc></StartTime><FrequencyChanges><FrequencyChange><Frequency dt:dt=""r8"">3020380</Frequency><Timestamp dt:dt=""r8"">1854349520219</Timestamp><Current dt:dt=""r8"">0</Current><DateUtc dt:dt=""string"">2019-09-04T22:17:07Z</DateUtc></FrequencyChange></FrequencyChanges></Clock>\n"	000_R01_VB_allProc-74-1	60.023	1.0.0.185	1	-1075782654	Professional	2.0.10.356	2.0.10.356	09-04-2019	n/a	18:17:07	2.0.10.252	5	0	0	998983	14	998983	3998	-999999	1165557	-3	1159191	0	Run1Proc	5	1	5	RunList	1	HighLargeED	8000	0	1020975	0	1020975	0	1020975	0	A1HighLargeEDBlockProc	1.0	1.0	1.0	n/a	n/a	n/a	n/a	n/a	n/a	n/a	n/a	n/a	n/a	n/a	n/a	Run1BlockList	3	3.0	1.0	3.0	n/a	n/a	n/a	n/a	n/a	n/a	n/a	n/a	n/a	n/a	n/a	n/a	n/a	n/a	n/a	n/a	n/a	n/a	n/a	n/a	n/a	n/a	n/a	n/a	n/a	n/a	n/a	n/a	n/a	n/a	n/a	n/a	n/a	n/a	n/a	n/a	n/a	n/a	n/a	n/a	n/a	n/a	n/a	n/a	n/a	n/a	n/a	n/a	n/a	n/a	n/a	n/a	n/a	n/a	n/a	n/a	n/a	n/a	n/a	n/a	n/a	n/a	n/a	n/a	n/a	n/a	n/a	n/a	n/a	n/a	n/a	n/a	n/a	n/a	n/a	n/a	n/a	n/a	n/a	n/a	n/a	n/a	n/a	n/a	n/a	n/a	n/a	A1_03.jpg	500	0	1011478	-1	1011478	0	TrialProc1	A1HighLargeEDBlockList	2500	0	1008979	0	1008979	0	1008979	2499	c	1092	1010071	9.998000000000001
13	2.5	000_R01_VB_allProc	74	1	"<?xml version=""1.0""?>\n<Clock xmlns:dt=""urn:schemas-microsoft-com:datatypes""><Description dt:dt=""string"">E-Prime Primary Realtime Clock</Description><StartTime><Timestamp dt:dt=""int"">0</Timestamp><DateUtc dt:dt=""string"">2019-09-04T22:17:07Z</DateUtc></StartTime><FrequencyChanges><FrequencyChange><Frequency dt:dt=""r8"">3020380</Frequency><Timestamp dt:dt=""r8"">1854349520219</Timestamp><Current dt:dt=""r8"">0</Current><DateUtc dt:dt=""string"">2019-09-04T22:17:07Z</DateUtc></FrequencyChange></FrequencyChanges></Clock>\n"	000_R01_VB_allProc-74-1	60.023	1.0.0.185	1	-1075782654	Professional	2.0.10.356	2.0.10.356	09-04-2019	n/a	18:17:07	2.0.10.252	5	0	0	998983	14	998983	3998	-999999	1165557	-3	1159191	0	Run1Proc	5	1	5	RunList	1	HighLargeED	8000	0	1020975	0	1020975	0	1020975	0	A1HighLargeEDBlockProc	1.0	1.0	1.0	n/a	n/a	n/a	n/a	n/a	n/a	n/a	n/a	n/a	n/a	n/a	n/a	Run1BlockList	4	4.0	1.0	4.0	n/a	n/a	n/a	n/a	n/a	n/a	n/a	n/a	n/a	n/a	n/a	n/a	n/a	n/a	n/a	n/a	n/a	n/a	n/a	n/a	n/a	n/a	n/a	n/a	n/a	n/a	n/a	n/a	n/a	n/a	n/a	n/a	n/a	n/a	n/a	n/a	n/a	n/a	n/a	n/a	n/a	n/a	n/a	n/a	n/a	n/a	n/a	n/a	n/a	n/a	n/a	n/a	n/a	n/a	n/a	n/a	n/a	n/a	n/a	n/a	n/a	n/a	n/a	n/a	n/a	n/a	n/a	n/a	n/a	n/a	n/a	n/a	n/a	n/a	n/a	n/a	n/a	n/a	n/a	n/a	n/a	n/a	n/a	n/a	n/a	n/a	n/a	A1_04.jpg	500	0	1014477	-1	1014477	0	TrialProc1	A1HighLargeEDBlockList	2500	0	1011978	0	1011978	0	1011978	2499	d	1141	1013119	12.997
16	2.5	000_R01_VB_allProc	74	1	"<?xml version=""1.0""?>\n<Clock xmlns:dt=""urn:schemas-microsoft-com:datatypes""><Description dt:dt=""string"">E-Prime Primary Realtime Clock</Description><StartTime><Timestamp dt:dt=""int"">0</Timestamp><DateUtc dt:dt=""string"">2019-09-04T22:17:07Z</DateUtc></StartTime><FrequencyChanges><FrequencyChange><Frequency dt:dt=""r8"">3020380</Frequency><Timestamp dt:dt=""r8"">1854349520219</Timestamp><Current dt:dt=""r8"">0</Current><DateUtc dt:dt=""string"">2019-09-04T22:17:07Z</DateUtc></FrequencyChange></FrequencyChanges></Clock>\n"	000_R01_VB_allProc-74-1	60.023	1.0.0.185	1	-1075782654	Professional	2.0.10.356	2.0.10.356	09-04-2019	n/a	18:17:07	2.0.10.252	5	0	0	998983	14	998983	3998	-999999	1165557	-3	1159191	0	Run1Proc	5	1	5	RunList	1	HighLargeED	8000	0	1020975	0	1020975	0	1020975	0	A1HighLargeEDBlockProc	1.0	1.0	1.0	n/a	n/a	n/a	n/a	n/a	n/a	n/a	n/a	n/a	n/a	n/a	n/a	Run1BlockList	5	5.0	1.0	5.0	n/a	n/a	n/a	n/a	n/a	n/a	n/a	n/a	n/a	n/a	n/a	n/a	n/a	n/a	n/a	n/a	n/a	n/a	n/a	n/a	n/a	n/a	n/a	n/a	n/a	n/a	n/a	n/a	n/a	n/a	n/a	n/a	n/a	n/a	n/a	n/a	n/a	n/a	n/a	n/a	n/a	n/a	n/a	n/a	n/a	n/a	n/a	n/a	n/a	n/a	n/a	n/a	n/a	n/a	n/a	n/a	n/a	n/a	n/a	n/a	n/a	n/a	n/a	n/a	n/a	n/a	n/a	n/a	n/a	n/a	n/a	n/a	n/a	n/a	n/a	n/a	n/a	n/a	n/a	n/a	n/a	n/a	n/a	n/a	n/a	n/a	n/a	A1_05.jpg	500	0	1017476	-1	1017476	0	TrialProc1	A1HighLargeEDBlockList	2500	0	1014977	0	1014977	0	1014977	2499	d	2270	1017247	15.996
19	2.5	000_R01_VB_allProc	74	1	"<?xml version=""1.0""?>\n<Clock xmlns:dt=""urn:schemas-microsoft-com:datatypes""><Description dt:dt=""string"">E-Prime Primary Realtime Clock</Description><StartTime><Timestamp dt:dt=""int"">0</Timestamp><DateUtc dt:dt=""string"">2019-09-04T22:17:07Z</DateUtc></StartTime><FrequencyChanges><FrequencyChange><Frequency dt:dt=""r8"">3020380</Frequency><Timestamp dt:dt=""r8"">1854349520219</Timestamp><Current dt:dt=""r8"">0</Current><DateUtc dt:dt=""string"">2019-09-04T22:17:07Z</DateUtc></FrequencyChange></FrequencyChanges></Clock>\n"	000_R01_VB_allProc-74-1	60.023	1.0.0.185	1	-1075782654	Professional	2.0.10.356	2.0.10.356	09-04-2019	n/a	18:17:07	2.0.10.252	5	0	0	998983	14	998983	3998	-999999	1165557	-3	1159191	0	Run1Proc	5	1	5	RunList	1	HighLargeED	8000	0	1020975	0	1020975	0	1020975	0	A1HighLargeEDBlockProc	1.0	1.0	1.0	n/a	n/a	n/a	n/a	n/a	n/a	n/a	n/a	n/a	n/a	n/a	n/a	Run1BlockList	6	6.0	1.0	6.0	n/a	n/a	n/a	n/a	n/a	n/a	n/a	n/a	n/a	n/a	n/a	n/a	n/a	n/a	n/a	n/a	n/a	n/a	n/a	n/a	n/a	n/a	n/a	n/a	n/a	n/a	n/a	n/a	n/a	n/a	n/a	n/a	n/a	n/a	n/a	n/a	n/a	n/a	n/a	n/a	n/a	n/a	n/a	n/a	n/a	n/a	n/a	n/a	n/a	n/a	n/a	n/a	n/a	n/a	n/a	n/a	n/a	n/a	n/a	n/a	n/a	n/a	n/a	n/a	n/a	n/a	n/a	n/a	n/a	n/a	n/a	n/a	n/a	n/a	n/a	n/a	n/a	n/a	n/a	n/a	n/a	n/a	n/a	n/a	n/a	n/a	n/a	A1_06.jpg	500	0	1020475	-1	1020475	0	TrialProc1	A1HighLargeEDBlockList	2500	0	1017976	0	1017976	0	1017976	2499	c	1679	1019655	18.994999999999997
30	2.5	000_R01_VB_allProc	74	1	"<?xml version=""1.0""?>\n<Clock xmlns:dt=""urn:schemas-microsoft-com:datatypes""><Description dt:dt=""string"">E-Prime Primary Realtime Clock</Description><StartTime><Timestamp dt:dt=""int"">0</Timestamp><DateUtc dt:dt=""string"">2019-09-04T22:17:07Z</DateUtc></StartTime><FrequencyChanges><FrequencyChange><Frequency dt:dt=""r8"">3020380</Frequency><Timestamp dt:dt=""r8"">1854349520219</Timestamp><Current dt:dt=""r8"">0</Current><DateUtc dt:dt=""string"">2019-09-04T22:17:07Z</DateUtc></FrequencyChange></FrequencyChanges></Clock>\n"	000_R01_VB_allProc-74-1	60.023	1.0.0.185	1	-1075782654	Professional	2.0.10.356	2.0.10.356	09-04-2019	n/a	18:17:07	2.0.10.252	5	0	0	998983	14	998983	3998	-999999	1165557	-3	1159191	0	Run1Proc	5	1	5	RunList	2	OfficeSmall	8000	0	1047232	0	1047232	0	1047232	0	F1OfficeSmallBlockProc	2.0	1.0	2.0	n/a	n/a	n/a	n/a	n/a	n/a	n/a	n/a	n/a	n/a	n/a	n/a	Run1BlockList	1	n/a	n/a	n/a	n/a	n/a	n/a	n/a	n/a	n/a	n/a	n/a	n/a	n/a	n/a	n/a	n/a	n/a	n/a	n/a	n/a	n/a	n/a	n/a	n/a	n/a	n/a	n/a	n/a	n/a	n/a	n/a	n/a	n/a	n/a	n/a	n/a	n/a	n/a	n/a	n/a	n/a	n/a	n/a	n/a	n/a	n/a	n/a	n/a	n/a	n/a	n/a	n/a	n/a	n/a	n/a	n/a	n/a	n/a	n/a	n/a	n/a	n/a	n/a	n/a	n/a	n/a	n/a	n/a	n/a	n/a	n/a	n/a	n/a	n/a	n/a	1.0	1.0	1.0	n/a	n/a	n/a	n/a	n/a	n/a	n/a	n/a	n/a	n/a	n/a	n/a	F1_01.jpg	500	0	1031471	-1	1031471	0	TrialProc1	F1OfficeSmallBlockList	2500	0	1028972	0	1028972	-3	1028972	2499	c	1307	1030279	29.991
33	2.5	000_R01_VB_allProc	74	1	"<?xml version=""1.0""?>\n<Clock xmlns:dt=""urn:schemas-microsoft-com:datatypes""><Description dt:dt=""string"">E-Prime Primary Realtime Clock</Description><StartTime><Timestamp dt:dt=""int"">0</Timestamp><DateUtc dt:dt=""string"">2019-09-04T22:17:07Z</DateUtc></StartTime><FrequencyChanges><FrequencyChange><Frequency dt:dt=""r8"">3020380</Frequency><Timestamp dt:dt=""r8"">1854349520219</Timestamp><Current dt:dt=""r8"">0</Current><DateUtc dt:dt=""string"">2019-09-04T22:17:07Z</DateUtc></FrequencyChange></FrequencyChanges></Clock>\n"	000_R01_VB_allProc-74-1	60.023	1.0.0.185	1	-1075782654	Professional	2.0.10.356	2.0.10.356	09-04-2019	n/a	18:17:07	2.0.10.252	5	0	0	998983	14	998983	3998	-999999	1165557	-3	1159191	0	Run1Proc	5	1	5	RunList	2	OfficeSmall	8000	0	1047232	0	1047232	0	1047232	0	F1OfficeSmallBlockProc	2.0	1.0	2.0	n/a	n/a	n/a	n/a	n/a	n/a	n/a	n/a	n/a	n/a	n/a	n/a	Run1BlockList	2	n/a	n/a	n/a	n/a	n/a	n/a	n/a	n/a	n/a	n/a	n/a	n/a	n/a	n/a	n/a	n/a	n/a	n/a	n/a	n/a	n/a	n/a	n/a	n/a	n/a	n/a	n/a	n/a	n/a	n/a	n/a	n/a	n/a	n/a	n/a	n/a	n/a	n/a	n/a	n/a	n/a	n/a	n/a	n/a	n/a	n/a	n/a	n/a	n/a	n/a	n/a	n/a	n/a	n/a	n/a	n/a	n/a	n/a	n/a	n/a	n/a	n/a	n/a	n/a	n/a	n/a	n/a	n/a	n/a	n/a	n/a	n/a	n/a	n/a	n/a	2.0	1.0	2.0	n/a	n/a	n/a	n/a	n/a	n/a	n/a	n/a	n/a	n/a	n/a	n/a	F1_02.jpg	500	0	1034470	-1	1034470	0	TrialProc1	F1OfficeSmallBlockList	2500	0	1031971	0	1031971	0	1031971	2499	c	692	1032663	32.989999999999995
36	2.5	000_R01_VB_allProc	74	1	"<?xml version=""1.0""?>\n<Clock xmlns:dt=""urn:schemas-microsoft-com:datatypes""><Description dt:dt=""string"">E-Prime Primary Realtime Clock</Description><StartTime><Timestamp dt:dt=""int"">0</Timestamp><DateUtc dt:dt=""string"">2019-09-04T22:17:07Z</DateUtc></StartTime><FrequencyChanges><FrequencyChange><Frequency dt:dt=""r8"">3020380</Frequency><Timestamp dt:dt=""r8"">1854349520219</Timestamp><Current dt:dt=""r8"">0</Current><DateUtc dt:dt=""string"">2019-09-04T22:17:07Z</DateUtc></FrequencyChange></FrequencyChanges></Clock>\n"	000_R01_VB_allProc-74-1	60.023	1.0.0.185	1	-1075782654	Professional	2.0.10.356	2.0.10.356	09-04-2019	n/a	18:17:07	2.0.10.252	5	0	0	998983	14	998983	3998	-999999	1165557	-3	1159191	0	Run1Proc	5	1	5	RunList	2	OfficeSmall	8000	0	1047232	0	1047232	0	1047232	0	F1OfficeSmallBlockProc	2.0	1.0	2.0	n/a	n/a	n/a	n/a	n/a	n/a	n/a	n/a	n/a	n/a	n/a	n/a	Run1BlockList	3	n/a	n/a	n/a	n/a	n/a	n/a	n/a	n/a	n/a	n/a	n/a	n/a	n/a	n/a	n/a	n/a	n/a	n/a	n/a	n/a	n/a	n/a	n/a	n/a	n/a	n/a	n/a	n/a	n/a	n/a	n/a	n/a	n/a	n/a	n/a	n/a	n/a	n/a	n/a	n/a	n/a	n/a	n/a	n/a	n/a	n/a	n/a	n/a	n/a	n/a	n/a	n/a	n/a	n/a	n/a	n/a	n/a	n/a	n/a	n/a	n/a	n/a	n/a	n/a	n/a	n/a	n/a	n/a	n/a	n/a	n/a	n/a	n/a	n/a	n/a	3.0	1.0	3.0	n/a	n/a	n/a	n/a	n/a	n/a	n/a	n/a	n/a	n/a	n/a	n/a	F1_03.jpg	500	0	1037469	-1	1037469	0	TrialProc1	F1OfficeSmallBlockList	2500	0	1034970	0	1034970	0	1034970	2499	c	628	1035598	35.989000000000004
39	2.5	000_R01_VB_allProc	74	1	"<?xml version=""1.0""?>\n<Clock xmlns:dt=""urn:schemas-microsoft-com:datatypes""><Description dt:dt=""string"">E-Prime Primary Realtime Clock</Description><StartTime><Timestamp dt:dt=""int"">0</Timestamp><DateUtc dt:dt=""string"">2019-09-04T22:17:07Z</DateUtc></StartTime><FrequencyChanges><FrequencyChange><Frequency dt:dt=""r8"">3020380</Frequency><Timestamp dt:dt=""r8"">1854349520219</Timestamp><Current dt:dt=""r8"">0</Current><DateUtc dt:dt=""string"">2019-09-04T22:17:07Z</DateUtc></FrequencyChange></FrequencyChanges></Clock>\n"	000_R01_VB_allProc-74-1	60.023	1.0.0.185	1	-1075782654	Professional	2.0.10.356	2.0.10.356	09-04-2019	n/a	18:17:07	2.0.10.252	5	0	0	998983	14	998983	3998	-999999	1165557	-3	1159191	0	Run1Proc	5	1	5	RunList	2	OfficeSmall	8000	0	1047232	0	1047232	0	1047232	0	F1OfficeSmallBlockProc	2.0	1.0	2.0	n/a	n/a	n/a	n/a	n/a	n/a	n/a	n/a	n/a	n/a	n/a	n/a	Run1BlockList	4	n/a	n/a	n/a	n/a	n/a	n/a	n/a	n/a	n/a	n/a	n/a	n/a	n/a	n/a	n/a	n/a	n/a	n/a	n/a	n/a	n/a	n/a	n/a	n/a	n/a	n/a	n/a	n/a	n/a	n/a	n/a	n/a	n/a	n/a	n/a	n/a	n/a	n/a	n/a	n/a	n/a	n/a	n/a	n/a	n/a	n/a	n/a	n/a	n/a	n/a	n/a	n/a	n/a	n/a	n/a	n/a	n/a	n/a	n/a	n/a	n/a	n/a	n/a	n/a	n/a	n/a	n/a	n/a	n/a	n/a	n/a	n/a	n/a	n/a	n/a	4.0	1.0	4.0	n/a	n/a	n/a	n/a	n/a	n/a	n/a	n/a	n/a	n/a	n/a	n/a	F1_04.jpg	500	0	1040468	-1	1040468	0	TrialProc1	F1OfficeSmallBlockList	2500	0	1037969	0	1037969	0	1037969	2499	c	461	1038430	38.988
42	2.5	000_R01_VB_allProc	74	1	"<?xml version=""1.0""?>\n<Clock xmlns:dt=""urn:schemas-microsoft-com:datatypes""><Description dt:dt=""string"">E-Prime Primary Realtime Clock</Description><StartTime><Timestamp dt:dt=""int"">0</Timestamp><DateUtc dt:dt=""string"">2019-09-04T22:17:07Z</DateUtc></StartTime><FrequencyChanges><FrequencyChange><Frequency dt:dt=""r8"">3020380</Frequency><Timestamp dt:dt=""r8"">1854349520219</Timestamp><Current dt:dt=""r8"">0</Current><DateUtc dt:dt=""string"">2019-09-04T22:17:07Z</DateUtc></FrequencyChange></FrequencyChanges></Clock>\n"	000_R01_VB_allProc-74-1	60.023	1.0.0.185	1	-1075782654	Professional	2.0.10.356	2.0.10.356	09-04-2019	n/a	18:17:07	2.0.10.252	5	0	0	998983	14	998983	3998	-999999	1165557	-3	1159191	0	Run1Proc	5	1	5	RunList	2	OfficeSmall	8000	0	1047232	0	1047232	0	1047232	0	F1OfficeSmallBlockProc	2.0	1.0	2.0	n/a	n/a	n/a	n/a	n/a	n/a	n/a	n/a	n/a	n/a	n/a	n/a	Run1BlockList	5	n/a	n/a	n/a	n/a	n/a	n/a	n/a	n/a	n/a	n/a	n/a	n/a	n/a	n/a	n/a	n/a	n/a	n/a	n/a	n/a	n/a	n/a	n/a	n/a	n/a	n/a	n/a	n/a	n/a	n/a	n/a	n/a	n/a	n/a	n/a	n/a	n/a	n/a	n/a	n/a	n/a	n/a	n/a	n/a	n/a	n/a	n/a	n/a	n/a	n/a	n/a	n/a	n/a	n/a	n/a	n/a	n/a	n/a	n/a	n/a	n/a	n/a	n/a	n/a	n/a	n/a	n/a	n/a	n/a	n/a	n/a	n/a	n/a	n/a	n/a	5.0	1.0	5.0	n/a	n/a	n/a	n/a	n/a	n/a	n/a	n/a	n/a	n/a	n/a	n/a	F1_05.jpg	500	0	1043733	-1	1043733	0	TrialProc1	F1OfficeSmallBlockList	2500	0	1041234	0	1041234	266	1041234	2499	c	412	1041646	42.253
45	2.5	000_R01_VB_allProc	74	1	"<?xml version=""1.0""?>\n<Clock xmlns:dt=""urn:schemas-microsoft-com:datatypes""><Description dt:dt=""string"">E-Prime Primary Realtime Clock</Description><StartTime><Timestamp dt:dt=""int"">0</Timestamp><DateUtc dt:dt=""string"">2019-09-04T22:17:07Z</DateUtc></StartTime><FrequencyChanges><FrequencyChange><Frequency dt:dt=""r8"">3020380</Frequency><Timestamp dt:dt=""r8"">1854349520219</Timestamp><Current dt:dt=""r8"">0</Current><DateUtc dt:dt=""string"">2019-09-04T22:17:07Z</DateUtc></FrequencyChange></FrequencyChanges></Clock>\n"	000_R01_VB_allProc-74-1	60.023	1.0.0.185	1	-1075782654	Professional	2.0.10.356	2.0.10.356	09-04-2019	n/a	18:17:07	2.0.10.252	5	0	0	998983	14	998983	3998	-999999	1165557	-3	1159191	0	Run1Proc	5	1	5	RunList	2	OfficeSmall	8000	0	1047232	0	1047232	0	1047232	0	F1OfficeSmallBlockProc	2.0	1.0	2.0	n/a	n/a	n/a	n/a	n/a	n/a	n/a	n/a	n/a	n/a	n/a	n/a	Run1BlockList	6	n/a	n/a	n/a	n/a	n/a	n/a	n/a	n/a	n/a	n/a	n/a	n/a	n/a	n/a	n/a	n/a	n/a	n/a	n/a	n/a	n/a	n/a	n/a	n/a	n/a	n/a	n/a	n/a	n/a	n/a	n/a	n/a	n/a	n/a	n/a	n/a	n/a	n/a	n/a	n/a	n/a	n/a	n/a	n/a	n/a	n/a	n/a	n/a	n/a	n/a	n/a	n/a	n/a	n/a	n/a	n/a	n/a	n/a	n/a	n/a	n/a	n/a	n/a	n/a	n/a	n/a	n/a	n/a	n/a	n/a	n/a	n/a	n/a	n/a	n/a	6.0	1.0	6.0	n/a	n/a	n/a	n/a	n/a	n/a	n/a	n/a	n/a	n/a	n/a	n/a	F1_06.jpg	500	0	1046732	-1	1046732	0	TrialProc1	F1OfficeSmallBlockList	2500	0	1044233	0	1044233	0	1044233	2499	c	661	1044894	45.252
56	2.5	000_R01_VB_allProc	74	1	"<?xml version=""1.0""?>\n<Clock xmlns:dt=""urn:schemas-microsoft-com:datatypes""><Description dt:dt=""string"">E-Prime Primary Realtime Clock</Description><StartTime><Timestamp dt:dt=""int"">0</Timestamp><DateUtc dt:dt=""string"">2019-09-04T22:17:07Z</DateUtc></StartTime><FrequencyChanges><FrequencyChange><Frequency dt:dt=""r8"">3020380</Frequency><Timestamp dt:dt=""r8"">1854349520219</Timestamp><Current dt:dt=""r8"">0</Current><DateUtc dt:dt=""string"">2019-09-04T22:17:07Z</DateUtc></FrequencyChange></FrequencyChanges></Clock>\n"	000_R01_VB_allProc-74-1	60.023	1.0.0.185	1	-1075782654	Professional	2.0.10.356	2.0.10.356	09-04-2019	n/a	18:17:07	2.0.10.252	5	0	0	998983	14	998983	3998	-999999	1165557	-3	1159191	0	Run1Proc	5	1	5	RunList	3	LowLargeED	8000	1	1073223	1	1073223	-1	1073222	0	C1LowLargeEDBlockProc	3.0	1.0	3.0	n/a	n/a	n/a	n/a	n/a	n/a	n/a	n/a	n/a	n/a	n/a	n/a	Run1BlockList	1	n/a	n/a	n/a	n/a	n/a	n/a	n/a	n/a	n/a	n/a	n/a	n/a	n/a	n/a	n/a	n/a	n/a	n/a	n/a	n/a	n/a	n/a	n/a	n/a	n/a	n/a	n/a	n/a	n/a	n/a	1.0	1.0	1.0	n/a	n/a	n/a	n/a	n/a	n/a	n/a	n/a	n/a	n/a	n/a	n/a	n/a	n/a	n/a	n/a	n/a	n/a	n/a	n/a	n/a	n/a	n/a	n/a	n/a	n/a	n/a	n/a	n/a	n/a	n/a	n/a	n/a	n/a	n/a	n/a	n/a	n/a	n/a	n/a	n/a	n/a	n/a	n/a	n/a	n/a	n/a	n/a	n/a	n/a	n/a	n/a	n/a	n/a	n/a	n/a	n/a	C1_01.jpg	500	0	1057728	-1	1057728	0	TrialProc1	C1LowLargeEDBlockList	2500	0	1055229	0	1055229	-3	1055229	2499	d	1457	1056686	56.248
59	2.5	000_R01_VB_allProc	74	1	"<?xml version=""1.0""?>\n<Clock xmlns:dt=""urn:schemas-microsoft-com:datatypes""><Description dt:dt=""string"">E-Prime Primary Realtime Clock</Description><StartTime><Timestamp dt:dt=""int"">0</Timestamp><DateUtc dt:dt=""string"">2019-09-04T22:17:07Z</DateUtc></StartTime><FrequencyChanges><FrequencyChange><Frequency dt:dt=""r8"">3020380</Frequency><Timestamp dt:dt=""r8"">1854349520219</Timestamp><Current dt:dt=""r8"">0</Current><DateUtc dt:dt=""string"">2019-09-04T22:17:07Z</DateUtc></FrequencyChange></FrequencyChanges></Clock>\n"	000_R01_VB_allProc-74-1	60.023	1.0.0.185	1	-1075782654	Professional	2.0.10.356	2.0.10.356	09-04-2019	n/a	18:17:07	2.0.10.252	5	0	0	998983	14	998983	3998	-999999	1165557	-3	1159191	0	Run1Proc	5	1	5	RunList	3	LowLargeED	8000	1	1073223	1	1073223	-1	1073222	0	C1LowLargeEDBlockProc	3.0	1.0	3.0	n/a	n/a	n/a	n/a	n/a	n/a	n/a	n/a	n/a	n/a	n/a	n/a	Run1BlockList	2	n/a	n/a	n/a	n/a	n/a	n/a	n/a	n/a	n/a	n/a	n/a	n/a	n/a	n/a	n/a	n/a	n/a	n/a	n/a	n/a	n/a	n/a	n/a	n/a	n/a	n/a	n/a	n/a	n/a	n/a	2.0	1.0	2.0	n/a	n/a	n/a	n/a	n/a	n/a	n/a	n/a	n/a	n/a	n/a	n/a	n/a	n/a	n/a	n/a	n/a	n/a	n/a	n/a	n/a	n/a	n/a	n/a	n/a	n/a	n/a	n/a	n/a	n/a	n/a	n/a	n/a	n/a	n/a	n/a	n/a	n/a	n/a	n/a	n/a	n/a	n/a	n/a	n/a	n/a	n/a	n/a	n/a	n/a	n/a	n/a	n/a	n/a	n/a	n/a	n/a	C1_02.jpg	500	0	1060727	-1	1060727	0	TrialProc1	C1LowLargeEDBlockList	2500	0	1058228	0	1058228	0	1058228	2499	c	1178	1059406	59.247
62	2.5	000_R01_VB_allProc	74	1	"<?xml version=""1.0""?>\n<Clock xmlns:dt=""urn:schemas-microsoft-com:datatypes""><Description dt:dt=""string"">E-Prime Primary Realtime Clock</Description><StartTime><Timestamp dt:dt=""int"">0</Timestamp><DateUtc dt:dt=""string"">2019-09-04T22:17:07Z</DateUtc></StartTime><FrequencyChanges><FrequencyChange><Frequency dt:dt=""r8"">3020380</Frequency><Timestamp dt:dt=""r8"">1854349520219</Timestamp><Current dt:dt=""r8"">0</Current><DateUtc dt:dt=""string"">2019-09-04T22:17:07Z</DateUtc></FrequencyChange></FrequencyChanges></Clock>\n"	000_R01_VB_allProc-74-1	60.023	1.0.0.185	1	-1075782654	Professional	2.0.10.356	2.0.10.356	09-04-2019	n/a	18:17:07	2.0.10.252	5	0	0	998983	14	998983	3998	-999999	1165557	-3	1159191	0	Run1Proc	5	1	5	RunList	3	LowLargeED	8000	1	1073223	1	1073223	-1	1073222	0	C1LowLargeEDBlockProc	3.0	1.0	3.0	n/a	n/a	n/a	n/a	n/a	n/a	n/a	n/a	n/a	n/a	n/a	n/a	Run1BlockList	3	n/a	n/a	n/a	n/a	n/a	n/a	n/a	n/a	n/a	n/a	n/a	n/a	n/a	n/a	n/a	n/a	n/a	n/a	n/a	n/a	n/a	n/a	n/a	n/a	n/a	n/a	n/a	n/a	n/a	n/a	3.0	1.0	3.0	n/a	n/a	n/a	n/a	n/a	n/a	n/a	n/a	n/a	n/a	n/a	n/a	n/a	n/a	n/a	n/a	n/a	n/a	n/a	n/a	n/a	n/a	n/a	n/a	n/a	n/a	n/a	n/a	n/a	n/a	n/a	n/a	n/a	n/a	n/a	n/a	n/a	n/a	n/a	n/a	n/a	n/a	n/a	n/a	n/a	n/a	n/a	n/a	n/a	n/a	n/a	n/a	n/a	n/a	n/a	n/a	n/a	C1_03.jpg	500	0	1063726	-1	1063726	0	TrialProc1	C1LowLargeEDBlockList	2500	0	1061227	0	1061227	0	1061227	2499	c	803	1062030	62.246
65	2.5	000_R01_VB_allProc	74	1	"<?xml version=""1.0""?>\n<Clock xmlns:dt=""urn:schemas-microsoft-com:datatypes""><Description dt:dt=""string"">E-Prime Primary Realtime Clock</Description><StartTime><Timestamp dt:dt=""int"">0</Timestamp><DateUtc dt:dt=""string"">2019-09-04T22:17:07Z</DateUtc></StartTime><FrequencyChanges><FrequencyChange><Frequency dt:dt=""r8"">3020380</Frequency><Timestamp dt:dt=""r8"">1854349520219</Timestamp><Current dt:dt=""r8"">0</Current><DateUtc dt:dt=""string"">2019-09-04T22:17:07Z</DateUtc></FrequencyChange></FrequencyChanges></Clock>\n"	000_R01_VB_allProc-74-1	60.023	1.0.0.185	1	-1075782654	Professional	2.0.10.356	2.0.10.356	09-04-2019	n/a	18:17:07	2.0.10.252	5	0	0	998983	14	998983	3998	-999999	1165557	-3	1159191	0	Run1Proc	5	1	5	RunList	3	LowLargeED	8000	1	1073223	1	1073223	-1	1073222	0	C1LowLargeEDBlockProc	3.0	1.0	3.0	n/a	n/a	n/a	n/a	n/a	n/a	n/a	n/a	n/a	n/a	n/a	n/a	Run1BlockList	4	n/a	n/a	n/a	n/a	n/a	n/a	n/a	n/a	n/a	n/a	n/a	n/a	n/a	n/a	n/a	n/a	n/a	n/a	n/a	n/a	n/a	n/a	n/a	n/a	n/a	n/a	n/a	n/a	n/a	n/a	4.0	1.0	4.0	n/a	n/a	n/a	n/a	n/a	n/a	n/a	n/a	n/a	n/a	n/a	n/a	n/a	n/a	n/a	n/a	n/a	n/a	n/a	n/a	n/a	n/a	n/a	n/a	n/a	n/a	n/a	n/a	n/a	n/a	n/a	n/a	n/a	n/a	n/a	n/a	n/a	n/a	n/a	n/a	n/a	n/a	n/a	n/a	n/a	n/a	n/a	n/a	n/a	n/a	n/a	n/a	n/a	n/a	n/a	n/a	n/a	C1_04.jpg	500	0	1066725	-1	1066725	0	TrialProc1	C1LowLargeEDBlockList	2500	0	1064226	0	1064226	0	1064226	2499	c	2180	1066406	65.245
68	2.5	000_R01_VB_allProc	74	1	"<?xml version=""1.0""?>\n<Clock xmlns:dt=""urn:schemas-microsoft-com:datatypes""><Description dt:dt=""string"">E-Prime Primary Realtime Clock</Description><StartTime><Timestamp dt:dt=""int"">0</Timestamp><DateUtc dt:dt=""string"">2019-09-04T22:17:07Z</DateUtc></StartTime><FrequencyChanges><FrequencyChange><Frequency dt:dt=""r8"">3020380</Frequency><Timestamp dt:dt=""r8"">1854349520219</Timestamp><Current dt:dt=""r8"">0</Current><DateUtc dt:dt=""string"">2019-09-04T22:17:07Z</DateUtc></FrequencyChange></FrequencyChanges></Clock>\n"	000_R01_VB_allProc-74-1	60.023	1.0.0.185	1	-1075782654	Professional	2.0.10.356	2.0.10.356	09-04-2019	n/a	18:17:07	2.0.10.252	5	0	0	998983	14	998983	3998	-999999	1165557	-3	1159191	0	Run1Proc	5	1	5	RunList	3	LowLargeED	8000	1	1073223	1	1073223	-1	1073222	0	C1LowLargeEDBlockProc	3.0	1.0	3.0	n/a	n/a	n/a	n/a	n/a	n/a	n/a	n/a	n/a	n/a	n/a	n/a	Run1BlockList	5	n/a	n/a	n/a	n/a	n/a	n/a	n/a	n/a	n/a	n/a	n/a	n/a	n/a	n/a	n/a	n/a	n/a	n/a	n/a	n/a	n/a	n/a	n/a	n/a	n/a	n/a	n/a	n/a	n/a	n/a	5.0	1.0	5.0	n/a	n/a	n/a	n/a	n/a	n/a	n/a	n/a	n/a	n/a	n/a	n/a	n/a	n/a	n/a	n/a	n/a	n/a	n/a	n/a	n/a	n/a	n/a	n/a	n/a	n/a	n/a	n/a	n/a	n/a	n/a	n/a	n/a	n/a	n/a	n/a	n/a	n/a	n/a	n/a	n/a	n/a	n/a	n/a	n/a	n/a	n/a	n/a	n/a	n/a	n/a	n/a	n/a	n/a	n/a	n/a	n/a	C1_05.jpg	500	0	1069724	-1	1069724	0	TrialProc1	C1LowLargeEDBlockList	2500	0	1067225	0	1067225	0	1067225	2499	d	1173	1068398	68.244
71	2.5	000_R01_VB_allProc	74	1	"<?xml version=""1.0""?>\n<Clock xmlns:dt=""urn:schemas-microsoft-com:datatypes""><Description dt:dt=""string"">E-Prime Primary Realtime Clock</Description><StartTime><Timestamp dt:dt=""int"">0</Timestamp><DateUtc dt:dt=""string"">2019-09-04T22:17:07Z</DateUtc></StartTime><FrequencyChanges><FrequencyChange><Frequency dt:dt=""r8"">3020380</Frequency><Timestamp dt:dt=""r8"">1854349520219</Timestamp><Current dt:dt=""r8"">0</Current><DateUtc dt:dt=""string"">2019-09-04T22:17:07Z</DateUtc></FrequencyChange></FrequencyChanges></Clock>\n"	000_R01_VB_allProc-74-1	60.023	1.0.0.185	1	-1075782654	Professional	2.0.10.356	2.0.10.356	09-04-2019	n/a	18:17:07	2.0.10.252	5	0	0	998983	14	998983	3998	-999999	1165557	-3	1159191	0	Run1Proc	5	1	5	RunList	3	LowLargeED	8000	1	1073223	1	1073223	-1	1073222	0	C1LowLargeEDBlockProc	3.0	1.0	3.0	n/a	n/a	n/a	n/a	n/a	n/a	n/a	n/a	n/a	n/a	n/a	n/a	Run1BlockList	6	n/a	n/a	n/a	n/a	n/a	n/a	n/a	n/a	n/a	n/a	n/a	n/a	n/a	n/a	n/a	n/a	n/a	n/a	n/a	n/a	n/a	n/a	n/a	n/a	n/a	n/a	n/a	n/a	n/a	n/a	6.0	1.0	6.0	n/a	n/a	n/a	n/a	n/a	n/a	n/a	n/a	n/a	n/a	n/a	n/a	n/a	n/a	n/a	n/a	n/a	n/a	n/a	n/a	n/a	n/a	n/a	n/a	n/a	n/a	n/a	n/a	n/a	n/a	n/a	n/a	n/a	n/a	n/a	n/a	n/a	n/a	n/a	n/a	n/a	n/a	n/a	n/a	n/a	n/a	n/a	n/a	n/a	n/a	n/a	n/a	n/a	n/a	n/a	n/a	n/a	C1_06.jpg	500	0	1072723	-1	1072723	0	TrialProc1	C1LowLargeEDBlockList	2500	0	1070224	0	1070224	0	1070224	2499	c	1054	1071278	71.243
82	2.5	000_R01_VB_allProc	74	1	"<?xml version=""1.0""?>\n<Clock xmlns:dt=""urn:schemas-microsoft-com:datatypes""><Description dt:dt=""string"">E-Prime Primary Realtime Clock</Description><StartTime><Timestamp dt:dt=""int"">0</Timestamp><DateUtc dt:dt=""string"">2019-09-04T22:17:07Z</DateUtc></StartTime><FrequencyChanges><FrequencyChange><Frequency dt:dt=""r8"">3020380</Frequency><Timestamp dt:dt=""r8"">1854349520219</Timestamp><Current dt:dt=""r8"">0</Current><DateUtc dt:dt=""string"">2019-09-04T22:17:07Z</DateUtc></FrequencyChange></FrequencyChanges></Clock>\n"	000_R01_VB_allProc-74-1	60.023	1.0.0.185	1	-1075782654	Professional	2.0.10.356	2.0.10.356	09-04-2019	n/a	18:17:07	2.0.10.252	5	0	0	998983	14	998983	3998	-999999	1165557	-3	1159191	0	Run1Proc	5	1	5	RunList	4	LowSmallED	8000	0	1099213	0	1099213	0	1099213	0	D1LowSmallEDBlockProc	4.0	1.0	4.0	n/a	n/a	n/a	n/a	n/a	n/a	n/a	n/a	n/a	n/a	n/a	n/a	Run1BlockList	1	n/a	n/a	n/a	n/a	n/a	n/a	n/a	n/a	n/a	n/a	n/a	n/a	n/a	n/a	n/a	n/a	n/a	n/a	n/a	n/a	n/a	n/a	n/a	n/a	n/a	n/a	n/a	n/a	n/a	n/a	n/a	n/a	n/a	n/a	n/a	n/a	n/a	n/a	n/a	n/a	n/a	n/a	n/a	n/a	n/a	1.0	1.0	1.0	n/a	n/a	n/a	n/a	n/a	n/a	n/a	n/a	n/a	n/a	n/a	n/a	n/a	n/a	n/a	n/a	n/a	n/a	n/a	n/a	n/a	n/a	n/a	n/a	n/a	n/a	n/a	n/a	n/a	n/a	n/a	n/a	n/a	n/a	n/a	n/a	n/a	n/a	n/a	n/a	n/a	n/a	D1_01.jpg	500	0	1083719	-1	1083719	0	TrialProc1	D1LowSmallEDBlockList	2500	0	1081220	0	1081220	-2	1081220	2499	d	1866	1083086	82.239
85	2.5	000_R01_VB_allProc	74	1	"<?xml version=""1.0""?>\n<Clock xmlns:dt=""urn:schemas-microsoft-com:datatypes""><Description dt:dt=""string"">E-Prime Primary Realtime Clock</Description><StartTime><Timestamp dt:dt=""int"">0</Timestamp><DateUtc dt:dt=""string"">2019-09-04T22:17:07Z</DateUtc></StartTime><FrequencyChanges><FrequencyChange><Frequency dt:dt=""r8"">3020380</Frequency><Timestamp dt:dt=""r8"">1854349520219</Timestamp><Current dt:dt=""r8"">0</Current><DateUtc dt:dt=""string"">2019-09-04T22:17:07Z</DateUtc></FrequencyChange></FrequencyChanges></Clock>\n"	000_R01_VB_allProc-74-1	60.023	1.0.0.185	1	-1075782654	Professional	2.0.10.356	2.0.10.356	09-04-2019	n/a	18:17:07	2.0.10.252	5	0	0	998983	14	998983	3998	-999999	1165557	-3	1159191	0	Run1Proc	5	1	5	RunList	4	LowSmallED	8000	0	1099213	0	1099213	0	1099213	0	D1LowSmallEDBlockProc	4.0	1.0	4.0	n/a	n/a	n/a	n/a	n/a	n/a	n/a	n/a	n/a	n/a	n/a	n/a	Run1BlockList	2	n/a	n/a	n/a	n/a	n/a	n/a	n/a	n/a	n/a	n/a	n/a	n/a	n/a	n/a	n/a	n/a	n/a	n/a	n/a	n/a	n/a	n/a	n/a	n/a	n/a	n/a	n/a	n/a	n/a	n/a	n/a	n/a	n/a	n/a	n/a	n/a	n/a	n/a	n/a	n/a	n/a	n/a	n/a	n/a	n/a	2.0	1.0	2.0	n/a	n/a	n/a	n/a	n/a	n/a	n/a	n/a	n/a	n/a	n/a	n/a	n/a	n/a	n/a	n/a	n/a	n/a	n/a	n/a	n/a	n/a	n/a	n/a	n/a	n/a	n/a	n/a	n/a	n/a	n/a	n/a	n/a	n/a	n/a	n/a	n/a	n/a	n/a	n/a	n/a	n/a	D1_02.jpg	500	0	1086718	0	1086718	0	TrialProc1	D1LowSmallEDBlockList	2500	1	1084219	1	1084219	-1	1084218	2500	c	948	1085166	85.237
88	2.5	000_R01_VB_allProc	74	1	"<?xml version=""1.0""?>\n<Clock xmlns:dt=""urn:schemas-microsoft-com:datatypes""><Description dt:dt=""string"">E-Prime Primary Realtime Clock</Description><StartTime><Timestamp dt:dt=""int"">0</Timestamp><DateUtc dt:dt=""string"">2019-09-04T22:17:07Z</DateUtc></StartTime><FrequencyChanges><FrequencyChange><Frequency dt:dt=""r8"">3020380</Frequency><Timestamp dt:dt=""r8"">1854349520219</Timestamp><Current dt:dt=""r8"">0</Current><DateUtc dt:dt=""string"">2019-09-04T22:17:07Z</DateUtc></FrequencyChange></FrequencyChanges></Clock>\n"	000_R01_VB_allProc-74-1	60.023	1.0.0.185	1	-1075782654	Professional	2.0.10.356	2.0.10.356	09-04-2019	n/a	18:17:07	2.0.10.252	5	0	0	998983	14	998983	3998	-999999	1165557	-3	1159191	0	Run1Proc	5	1	5	RunList	4	LowSmallED	8000	0	1099213	0	1099213	0	1099213	0	D1LowSmallEDBlockProc	4.0	1.0	4.0	n/a	n/a	n/a	n/a	n/a	n/a	n/a	n/a	n/a	n/a	n/a	n/a	Run1BlockList	3	n/a	n/a	n/a	n/a	n/a	n/a	n/a	n/a	n/a	n/a	n/a	n/a	n/a	n/a	n/a	n/a	n/a	n/a	n/a	n/a	n/a	n/a	n/a	n/a	n/a	n/a	n/a	n/a	n/a	n/a	n/a	n/a	n/a	n/a	n/a	n/a	n/a	n/a	n/a	n/a	n/a	n/a	n/a	n/a	n/a	3.0	1.0	3.0	n/a	n/a	n/a	n/a	n/a	n/a	n/a	n/a	n/a	n/a	n/a	n/a	n/a	n/a	n/a	n/a	n/a	n/a	n/a	n/a	n/a	n/a	n/a	n/a	n/a	n/a	n/a	n/a	n/a	n/a	n/a	n/a	n/a	n/a	n/a	n/a	n/a	n/a	n/a	n/a	n/a	n/a	D1_03.jpg	500	1	1089717	-1	1089716	0	TrialProc1	D1LowSmallEDBlockList	2500	0	1087217	0	1087217	-1	1087217	2499	c	1645	1088862	88.236
91	2.5	000_R01_VB_allProc	74	1	"<?xml version=""1.0""?>\n<Clock xmlns:dt=""urn:schemas-microsoft-com:datatypes""><Description dt:dt=""string"">E-Prime Primary Realtime Clock</Description><StartTime><Timestamp dt:dt=""int"">0</Timestamp><DateUtc dt:dt=""string"">2019-09-04T22:17:07Z</DateUtc></StartTime><FrequencyChanges><FrequencyChange><Frequency dt:dt=""r8"">3020380</Frequency><Timestamp dt:dt=""r8"">1854349520219</Timestamp><Current dt:dt=""r8"">0</Current><DateUtc dt:dt=""string"">2019-09-04T22:17:07Z</DateUtc></FrequencyChange></FrequencyChanges></Clock>\n"	000_R01_VB_allProc-74-1	60.023	1.0.0.185	1	-1075782654	Professional	2.0.10.356	2.0.10.356	09-04-2019	n/a	18:17:07	2.0.10.252	5	0	0	998983	14	998983	3998	-999999	1165557	-3	1159191	0	Run1Proc	5	1	5	RunList	4	LowSmallED	8000	0	1099213	0	1099213	0	1099213	0	D1LowSmallEDBlockProc	4.0	1.0	4.0	n/a	n/a	n/a	n/a	n/a	n/a	n/a	n/a	n/a	n/a	n/a	n/a	Run1BlockList	4	n/a	n/a	n/a	n/a	n/a	n/a	n/a	n/a	n/a	n/a	n/a	n/a	n/a	n/a	n/a	n/a	n/a	n/a	n/a	n/a	n/a	n/a	n/a	n/a	n/a	n/a	n/a	n/a	n/a	n/a	n/a	n/a	n/a	n/a	n/a	n/a	n/a	n/a	n/a	n/a	n/a	n/a	n/a	n/a	n/a	4.0	1.0	4.0	n/a	n/a	n/a	n/a	n/a	n/a	n/a	n/a	n/a	n/a	n/a	n/a	n/a	n/a	n/a	n/a	n/a	n/a	n/a	n/a	n/a	n/a	n/a	n/a	n/a	n/a	n/a	n/a	n/a	n/a	n/a	n/a	n/a	n/a	n/a	n/a	n/a	n/a	n/a	n/a	n/a	n/a	D1_04.jpg	500	0	1092715	-1	1092715	0	TrialProc1	D1LowSmallEDBlockList	2500	0	1090216	0	1090216	0	1090216	2499	a	742	1090958	91.235
94	2.5	000_R01_VB_allProc	74	1	"<?xml version=""1.0""?>\n<Clock xmlns:dt=""urn:schemas-microsoft-com:datatypes""><Description dt:dt=""string"">E-Prime Primary Realtime Clock</Description><StartTime><Timestamp dt:dt=""int"">0</Timestamp><DateUtc dt:dt=""string"">2019-09-04T22:17:07Z</DateUtc></StartTime><FrequencyChanges><FrequencyChange><Frequency dt:dt=""r8"">3020380</Frequency><Timestamp dt:dt=""r8"">1854349520219</Timestamp><Current dt:dt=""r8"">0</Current><DateUtc dt:dt=""string"">2019-09-04T22:17:07Z</DateUtc></FrequencyChange></FrequencyChanges></Clock>\n"	000_R01_VB_allProc-74-1	60.023	1.0.0.185	1	-1075782654	Professional	2.0.10.356	2.0.10.356	09-04-2019	n/a	18:17:07	2.0.10.252	5	0	0	998983	14	998983	3998	-999999	1165557	-3	1159191	0	Run1Proc	5	1	5	RunList	4	LowSmallED	8000	0	1099213	0	1099213	0	1099213	0	D1LowSmallEDBlockProc	4.0	1.0	4.0	n/a	n/a	n/a	n/a	n/a	n/a	n/a	n/a	n/a	n/a	n/a	n/a	Run1BlockList	5	n/a	n/a	n/a	n/a	n/a	n/a	n/a	n/a	n/a	n/a	n/a	n/a	n/a	n/a	n/a	n/a	n/a	n/a	n/a	n/a	n/a	n/a	n/a	n/a	n/a	n/a	n/a	n/a	n/a	n/a	n/a	n/a	n/a	n/a	n/a	n/a	n/a	n/a	n/a	n/a	n/a	n/a	n/a	n/a	n/a	5.0	1.0	5.0	n/a	n/a	n/a	n/a	n/a	n/a	n/a	n/a	n/a	n/a	n/a	n/a	n/a	n/a	n/a	n/a	n/a	n/a	n/a	n/a	n/a	n/a	n/a	n/a	n/a	n/a	n/a	n/a	n/a	n/a	n/a	n/a	n/a	n/a	n/a	n/a	n/a	n/a	n/a	n/a	n/a	n/a	D1_05.jpg	500	0	1095714	-1	1095714	0	TrialProc1	D1LowSmallEDBlockList	2500	0	1093215	0	1093215	0	1093215	2499	d	1727	1094942	94.234
97	2.5	000_R01_VB_allProc	74	1	"<?xml version=""1.0""?>\n<Clock xmlns:dt=""urn:schemas-microsoft-com:datatypes""><Description dt:dt=""string"">E-Prime Primary Realtime Clock</Description><StartTime><Timestamp dt:dt=""int"">0</Timestamp><DateUtc dt:dt=""string"">2019-09-04T22:17:07Z</DateUtc></StartTime><FrequencyChanges><FrequencyChange><Frequency dt:dt=""r8"">3020380</Frequency><Timestamp dt:dt=""r8"">1854349520219</Timestamp><Current dt:dt=""r8"">0</Current><DateUtc dt:dt=""string"">2019-09-04T22:17:07Z</DateUtc></FrequencyChange></FrequencyChanges></Clock>\n"	000_R01_VB_allProc-74-1	60.023	1.0.0.185	1	-1075782654	Professional	2.0.10.356	2.0.10.356	09-04-2019	n/a	18:17:07	2.0.10.252	5	0	0	998983	14	998983	3998	-999999	1165557	-3	1159191	0	Run1Proc	5	1	5	RunList	4	LowSmallED	8000	0	1099213	0	1099213	0	1099213	0	D1LowSmallEDBlockProc	4.0	1.0	4.0	n/a	n/a	n/a	n/a	n/a	n/a	n/a	n/a	n/a	n/a	n/a	n/a	Run1BlockList	6	n/a	n/a	n/a	n/a	n/a	n/a	n/a	n/a	n/a	n/a	n/a	n/a	n/a	n/a	n/a	n/a	n/a	n/a	n/a	n/a	n/a	n/a	n/a	n/a	n/a	n/a	n/a	n/a	n/a	n/a	n/a	n/a	n/a	n/a	n/a	n/a	n/a	n/a	n/a	n/a	n/a	n/a	n/a	n/a	n/a	6.0	1.0	6.0	n/a	n/a	n/a	n/a	n/a	n/a	n/a	n/a	n/a	n/a	n/a	n/a	n/a	n/a	n/a	n/a	n/a	n/a	n/a	n/a	n/a	n/a	n/a	n/a	n/a	n/a	n/a	n/a	n/a	n/a	n/a	n/a	n/a	n/a	n/a	n/a	n/a	n/a	n/a	n/a	n/a	n/a	D1_06.jpg	500	0	1098713	-1	1098713	0	TrialProc1	D1LowSmallEDBlockList	2500	0	1096214	0	1096214	0	1096214	2499	c	952	1097166	97.233
108	2.5	000_R01_VB_allProc	74	1	"<?xml version=""1.0""?>\n<Clock xmlns:dt=""urn:schemas-microsoft-com:datatypes""><Description dt:dt=""string"">E-Prime Primary Realtime Clock</Description><StartTime><Timestamp dt:dt=""int"">0</Timestamp><DateUtc dt:dt=""string"">2019-09-04T22:17:07Z</DateUtc></StartTime><FrequencyChanges><FrequencyChange><Frequency dt:dt=""r8"">3020380</Frequency><Timestamp dt:dt=""r8"">1854349520219</Timestamp><Current dt:dt=""r8"">0</Current><DateUtc dt:dt=""string"">2019-09-04T22:17:07Z</DateUtc></FrequencyChange></FrequencyChanges></Clock>\n"	000_R01_VB_allProc-74-1	60.023	1.0.0.185	1	-1075782654	Professional	2.0.10.356	2.0.10.356	09-04-2019	n/a	18:17:07	2.0.10.252	5	0	0	998983	14	998983	3998	-999999	1165557	-3	1159191	0	Run1Proc	5	1	5	RunList	5	OfficeLarge	8000	0	1125204	0	1125204	0	1125204	0	E1OfficeLargeBlockProc	5.0	1.0	5.0	n/a	n/a	n/a	n/a	n/a	n/a	n/a	n/a	n/a	n/a	n/a	n/a	Run1BlockList	1	n/a	n/a	n/a	n/a	n/a	n/a	n/a	n/a	n/a	n/a	n/a	n/a	n/a	n/a	n/a	n/a	n/a	n/a	n/a	n/a	n/a	n/a	n/a	n/a	n/a	n/a	n/a	n/a	n/a	n/a	n/a	n/a	n/a	n/a	n/a	n/a	n/a	n/a	n/a	n/a	n/a	n/a	n/a	n/a	n/a	n/a	n/a	n/a	n/a	n/a	n/a	n/a	n/a	n/a	n/a	n/a	n/a	n/a	n/a	n/a	1.0	1.0	1.0	n/a	n/a	n/a	n/a	n/a	n/a	n/a	n/a	n/a	n/a	n/a	n/a	n/a	n/a	n/a	n/a	n/a	n/a	n/a	n/a	n/a	n/a	n/a	n/a	n/a	n/a	n/a	E1_01.jpg	500	0	1109709	-1	1109709	0	TrialProc1	E1OfficeLargeBlockList	2500	0	1107210	0	1107210	-3	1107210	2499	c	1732	1108942	108.229
111	2.5	000_R01_VB_allProc	74	1	"<?xml version=""1.0""?>\n<Clock xmlns:dt=""urn:schemas-microsoft-com:datatypes""><Description dt:dt=""string"">E-Prime Primary Realtime Clock</Description><StartTime><Timestamp dt:dt=""int"">0</Timestamp><DateUtc dt:dt=""string"">2019-09-04T22:17:07Z</DateUtc></StartTime><FrequencyChanges><FrequencyChange><Frequency dt:dt=""r8"">3020380</Frequency><Timestamp dt:dt=""r8"">1854349520219</Timestamp><Current dt:dt=""r8"">0</Current><DateUtc dt:dt=""string"">2019-09-04T22:17:07Z</DateUtc></FrequencyChange></FrequencyChanges></Clock>\n"	000_R01_VB_allProc-74-1	60.023	1.0.0.185	1	-1075782654	Professional	2.0.10.356	2.0.10.356	09-04-2019	n/a	18:17:07	2.0.10.252	5	0	0	998983	14	998983	3998	-999999	1165557	-3	1159191	0	Run1Proc	5	1	5	RunList	5	OfficeLarge	8000	0	1125204	0	1125204	0	1125204	0	E1OfficeLargeBlockProc	5.0	1.0	5.0	n/a	n/a	n/a	n/a	n/a	n/a	n/a	n/a	n/a	n/a	n/a	n/a	Run1BlockList	2	n/a	n/a	n/a	n/a	n/a	n/a	n/a	n/a	n/a	n/a	n/a	n/a	n/a	n/a	n/a	n/a	n/a	n/a	n/a	n/a	n/a	n/a	n/a	n/a	n/a	n/a	n/a	n/a	n/a	n/a	n/a	n/a	n/a	n/a	n/a	n/a	n/a	n/a	n/a	n/a	n/a	n/a	n/a	n/a	n/a	n/a	n/a	n/a	n/a	n/a	n/a	n/a	n/a	n/a	n/a	n/a	n/a	n/a	n/a	n/a	2.0	1.0	2.0	n/a	n/a	n/a	n/a	n/a	n/a	n/a	n/a	n/a	n/a	n/a	n/a	n/a	n/a	n/a	n/a	n/a	n/a	n/a	n/a	n/a	n/a	n/a	n/a	n/a	n/a	n/a	E1_02.jpg	500	0	1112708	-1	1112708	0	TrialProc1	E1OfficeLargeBlockList	2500	0	1110209	0	1110209	0	1110209	2499	c	1389	1111598	111.228
114	2.5	000_R01_VB_allProc	74	1	"<?xml version=""1.0""?>\n<Clock xmlns:dt=""urn:schemas-microsoft-com:datatypes""><Description dt:dt=""string"">E-Prime Primary Realtime Clock</Description><StartTime><Timestamp dt:dt=""int"">0</Timestamp><DateUtc dt:dt=""string"">2019-09-04T22:17:07Z</DateUtc></StartTime><FrequencyChanges><FrequencyChange><Frequency dt:dt=""r8"">3020380</Frequency><Timestamp dt:dt=""r8"">1854349520219</Timestamp><Current dt:dt=""r8"">0</Current><DateUtc dt:dt=""string"">2019-09-04T22:17:07Z</DateUtc></FrequencyChange></FrequencyChanges></Clock>\n"	000_R01_VB_allProc-74-1	60.023	1.0.0.185	1	-1075782654	Professional	2.0.10.356	2.0.10.356	09-04-2019	n/a	18:17:07	2.0.10.252	5	0	0	998983	14	998983	3998	-999999	1165557	-3	1159191	0	Run1Proc	5	1	5	RunList	5	OfficeLarge	8000	0	1125204	0	1125204	0	1125204	0	E1OfficeLargeBlockProc	5.0	1.0	5.0	n/a	n/a	n/a	n/a	n/a	n/a	n/a	n/a	n/a	n/a	n/a	n/a	Run1BlockList	3	n/a	n/a	n/a	n/a	n/a	n/a	n/a	n/a	n/a	n/a	n/a	n/a	n/a	n/a	n/a	n/a	n/a	n/a	n/a	n/a	n/a	n/a	n/a	n/a	n/a	n/a	n/a	n/a	n/a	n/a	n/a	n/a	n/a	n/a	n/a	n/a	n/a	n/a	n/a	n/a	n/a	n/a	n/a	n/a	n/a	n/a	n/a	n/a	n/a	n/a	n/a	n/a	n/a	n/a	n/a	n/a	n/a	n/a	n/a	n/a	3.0	1.0	3.0	n/a	n/a	n/a	n/a	n/a	n/a	n/a	n/a	n/a	n/a	n/a	n/a	n/a	n/a	n/a	n/a	n/a	n/a	n/a	n/a	n/a	n/a	n/a	n/a	n/a	n/a	n/a	E1_03.jpg	500	0	1115707	-1	1115707	0	TrialProc1	E1OfficeLargeBlockList	2500	0	1113208	0	1113208	0	1113208	2499	c	734	1113942	114.227
117	2.5	000_R01_VB_allProc	74	1	"<?xml version=""1.0""?>\n<Clock xmlns:dt=""urn:schemas-microsoft-com:datatypes""><Description dt:dt=""string"">E-Prime Primary Realtime Clock</Description><StartTime><Timestamp dt:dt=""int"">0</Timestamp><DateUtc dt:dt=""string"">2019-09-04T22:17:07Z</DateUtc></StartTime><FrequencyChanges><FrequencyChange><Frequency dt:dt=""r8"">3020380</Frequency><Timestamp dt:dt=""r8"">1854349520219</Timestamp><Current dt:dt=""r8"">0</Current><DateUtc dt:dt=""string"">2019-09-04T22:17:07Z</DateUtc></FrequencyChange></FrequencyChanges></Clock>\n"	000_R01_VB_allProc-74-1	60.023	1.0.0.185	1	-1075782654	Professional	2.0.10.356	2.0.10.356	09-04-2019	n/a	18:17:07	2.0.10.252	5	0	0	998983	14	998983	3998	-999999	1165557	-3	1159191	0	Run1Proc	5	1	5	RunList	5	OfficeLarge	8000	0	1125204	0	1125204	0	1125204	0	E1OfficeLargeBlockProc	5.0	1.0	5.0	n/a	n/a	n/a	n/a	n/a	n/a	n/a	n/a	n/a	n/a	n/a	n/a	Run1BlockList	4	n/a	n/a	n/a	n/a	n/a	n/a	n/a	n/a	n/a	n/a	n/a	n/a	n/a	n/a	n/a	n/a	n/a	n/a	n/a	n/a	n/a	n/a	n/a	n/a	n/a	n/a	n/a	n/a	n/a	n/a	n/a	n/a	n/a	n/a	n/a	n/a	n/a	n/a	n/a	n/a	n/a	n/a	n/a	n/a	n/a	n/a	n/a	n/a	n/a	n/a	n/a	n/a	n/a	n/a	n/a	n/a	n/a	n/a	n/a	n/a	4.0	1.0	4.0	n/a	n/a	n/a	n/a	n/a	n/a	n/a	n/a	n/a	n/a	n/a	n/a	n/a	n/a	n/a	n/a	n/a	n/a	n/a	n/a	n/a	n/a	n/a	n/a	n/a	n/a	n/a	E1_04.jpg	500	0	1118706	-1	1118706	0	TrialProc1	E1OfficeLargeBlockList	2500	0	1116207	0	1116207	0	1116207	2499	c	1055	1117262	117.226
120	2.5	000_R01_VB_allProc	74	1	"<?xml version=""1.0""?>\n<Clock xmlns:dt=""urn:schemas-microsoft-com:datatypes""><Description dt:dt=""string"">E-Prime Primary Realtime Clock</Description><StartTime><Timestamp dt:dt=""int"">0</Timestamp><DateUtc dt:dt=""string"">2019-09-04T22:17:07Z</DateUtc></StartTime><FrequencyChanges><FrequencyChange><Frequency dt:dt=""r8"">3020380</Frequency><Timestamp dt:dt=""r8"">1854349520219</Timestamp><Current dt:dt=""r8"">0</Current><DateUtc dt:dt=""string"">2019-09-04T22:17:07Z</DateUtc></FrequencyChange></FrequencyChanges></Clock>\n"	000_R01_VB_allProc-74-1	60.023	1.0.0.185	1	-1075782654	Professional	2.0.10.356	2.0.10.356	09-04-2019	n/a	18:17:07	2.0.10.252	5	0	0	998983	14	998983	3998	-999999	1165557	-3	1159191	0	Run1Proc	5	1	5	RunList	5	OfficeLarge	8000	0	1125204	0	1125204	0	1125204	0	E1OfficeLargeBlockProc	5.0	1.0	5.0	n/a	n/a	n/a	n/a	n/a	n/a	n/a	n/a	n/a	n/a	n/a	n/a	Run1BlockList	5	n/a	n/a	n/a	n/a	n/a	n/a	n/a	n/a	n/a	n/a	n/a	n/a	n/a	n/a	n/a	n/a	n/a	n/a	n/a	n/a	n/a	n/a	n/a	n/a	n/a	n/a	n/a	n/a	n/a	n/a	n/a	n/a	n/a	n/a	n/a	n/a	n/a	n/a	n/a	n/a	n/a	n/a	n/a	n/a	n/a	n/a	n/a	n/a	n/a	n/a	n/a	n/a	n/a	n/a	n/a	n/a	n/a	n/a	n/a	n/a	5.0	1.0	5.0	n/a	n/a	n/a	n/a	n/a	n/a	n/a	n/a	n/a	n/a	n/a	n/a	n/a	n/a	n/a	n/a	n/a	n/a	n/a	n/a	n/a	n/a	n/a	n/a	n/a	n/a	n/a	E1_05.jpg	500	0	1121705	-1	1121705	0	TrialProc1	E1OfficeLargeBlockList	2500	0	1119206	0	1119206	0	1119206	2499	c	1784	1120990	120.225
123	2.5	000_R01_VB_allProc	74	1	"<?xml version=""1.0""?>\n<Clock xmlns:dt=""urn:schemas-microsoft-com:datatypes""><Description dt:dt=""string"">E-Prime Primary Realtime Clock</Description><StartTime><Timestamp dt:dt=""int"">0</Timestamp><DateUtc dt:dt=""string"">2019-09-04T22:17:07Z</DateUtc></StartTime><FrequencyChanges><FrequencyChange><Frequency dt:dt=""r8"">3020380</Frequency><Timestamp dt:dt=""r8"">1854349520219</Timestamp><Current dt:dt=""r8"">0</Current><DateUtc dt:dt=""string"">2019-09-04T22:17:07Z</DateUtc></FrequencyChange></FrequencyChanges></Clock>\n"	000_R01_VB_allProc-74-1	60.023	1.0.0.185	1	-1075782654	Professional	2.0.10.356	2.0.10.356	09-04-2019	n/a	18:17:07	2.0.10.252	5	0	0	998983	14	998983	3998	-999999	1165557	-3	1159191	0	Run1Proc	5	1	5	RunList	5	OfficeLarge	8000	0	1125204	0	1125204	0	1125204	0	E1OfficeLargeBlockProc	5.0	1.0	5.0	n/a	n/a	n/a	n/a	n/a	n/a	n/a	n/a	n/a	n/a	n/a	n/a	Run1BlockList	6	n/a	n/a	n/a	n/a	n/a	n/a	n/a	n/a	n/a	n/a	n/a	n/a	n/a	n/a	n/a	n/a	n/a	n/a	n/a	n/a	n/a	n/a	n/a	n/a	n/a	n/a	n/a	n/a	n/a	n/a	n/a	n/a	n/a	n/a	n/a	n/a	n/a	n/a	n/a	n/a	n/a	n/a	n/a	n/a	n/a	n/a	n/a	n/a	n/a	n/a	n/a	n/a	n/a	n/a	n/a	n/a	n/a	n/a	n/a	n/a	6.0	1.0	6.0	n/a	n/a	n/a	n/a	n/a	n/a	n/a	n/a	n/a	n/a	n/a	n/a	n/a	n/a	n/a	n/a	n/a	n/a	n/a	n/a	n/a	n/a	n/a	n/a	n/a	n/a	n/a	E1_06.jpg	500	0	1124704	-1	1124704	0	TrialProc1	E1OfficeLargeBlockList	2500	0	1122205	0	1122205	0	1122205	2499	c	1209	1123414	123.224
134	2.5	000_R01_VB_allProc	74	1	"<?xml version=""1.0""?>\n<Clock xmlns:dt=""urn:schemas-microsoft-com:datatypes""><Description dt:dt=""string"">E-Prime Primary Realtime Clock</Description><StartTime><Timestamp dt:dt=""int"">0</Timestamp><DateUtc dt:dt=""string"">2019-09-04T22:17:07Z</DateUtc></StartTime><FrequencyChanges><FrequencyChange><Frequency dt:dt=""r8"">3020380</Frequency><Timestamp dt:dt=""r8"">1854349520219</Timestamp><Current dt:dt=""r8"">0</Current><DateUtc dt:dt=""string"">2019-09-04T22:17:07Z</DateUtc></FrequencyChange></FrequencyChanges></Clock>\n"	000_R01_VB_allProc-74-1	60.023	1.0.0.185	1	-1075782654	Professional	2.0.10.356	2.0.10.356	09-04-2019	n/a	18:17:07	2.0.10.252	5	0	0	998983	14	998983	3998	-999999	1165557	-3	1159191	0	Run1Proc	5	1	5	RunList	6	HighSmallED	8000	0	1151194	0	1151194	0	1151194	0	B1HighSmallEDBlockProc	6.0	1.0	6.0	n/a	n/a	n/a	n/a	n/a	n/a	n/a	n/a	n/a	n/a	n/a	n/a	Run1BlockList	1	n/a	n/a	n/a	n/a	n/a	n/a	n/a	n/a	n/a	n/a	n/a	n/a	n/a	n/a	n/a	1.0	1.0	1.0	n/a	n/a	n/a	n/a	n/a	n/a	n/a	n/a	n/a	n/a	n/a	n/a	n/a	n/a	n/a	n/a	n/a	n/a	n/a	n/a	n/a	n/a	n/a	n/a	n/a	n/a	n/a	n/a	n/a	n/a	n/a	n/a	n/a	n/a	n/a	n/a	n/a	n/a	n/a	n/a	n/a	n/a	n/a	n/a	n/a	n/a	n/a	n/a	n/a	n/a	n/a	n/a	n/a	n/a	n/a	n/a	n/a	n/a	n/a	n/a	n/a	n/a	n/a	n/a	n/a	n/a	n/a	n/a	n/a	n/a	n/a	n/a	B1_01.jpg	500	0	1135700	-1	1135700	0	TrialProc1	B1HighSmallEDBlockList	2500	0	1133201	0	1133201	-3	1133201	2499	d	2157	1135358	134.22
137	2.5	000_R01_VB_allProc	74	1	"<?xml version=""1.0""?>\n<Clock xmlns:dt=""urn:schemas-microsoft-com:datatypes""><Description dt:dt=""string"">E-Prime Primary Realtime Clock</Description><StartTime><Timestamp dt:dt=""int"">0</Timestamp><DateUtc dt:dt=""string"">2019-09-04T22:17:07Z</DateUtc></StartTime><FrequencyChanges><FrequencyChange><Frequency dt:dt=""r8"">3020380</Frequency><Timestamp dt:dt=""r8"">1854349520219</Timestamp><Current dt:dt=""r8"">0</Current><DateUtc dt:dt=""string"">2019-09-04T22:17:07Z</DateUtc></FrequencyChange></FrequencyChanges></Clock>\n"	000_R01_VB_allProc-74-1	60.023	1.0.0.185	1	-1075782654	Professional	2.0.10.356	2.0.10.356	09-04-2019	n/a	18:17:07	2.0.10.252	5	0	0	998983	14	998983	3998	-999999	1165557	-3	1159191	0	Run1Proc	5	1	5	RunList	6	HighSmallED	8000	0	1151194	0	1151194	0	1151194	0	B1HighSmallEDBlockProc	6.0	1.0	6.0	n/a	n/a	n/a	n/a	n/a	n/a	n/a	n/a	n/a	n/a	n/a	n/a	Run1BlockList	2	n/a	n/a	n/a	n/a	n/a	n/a	n/a	n/a	n/a	n/a	n/a	n/a	n/a	n/a	n/a	2.0	1.0	2.0	n/a	n/a	n/a	n/a	n/a	n/a	n/a	n/a	n/a	n/a	n/a	n/a	n/a	n/a	n/a	n/a	n/a	n/a	n/a	n/a	n/a	n/a	n/a	n/a	n/a	n/a	n/a	n/a	n/a	n/a	n/a	n/a	n/a	n/a	n/a	n/a	n/a	n/a	n/a	n/a	n/a	n/a	n/a	n/a	n/a	n/a	n/a	n/a	n/a	n/a	n/a	n/a	n/a	n/a	n/a	n/a	n/a	n/a	n/a	n/a	n/a	n/a	n/a	n/a	n/a	n/a	n/a	n/a	n/a	n/a	n/a	n/a	B1_02.jpg	500	0	1138699	-1	1138699	0	TrialProc1	B1HighSmallEDBlockList	2500	0	1136200	0	1136200	0	1136200	2499	d	998	1137198	137.219
140	2.5	000_R01_VB_allProc	74	1	"<?xml version=""1.0""?>\n<Clock xmlns:dt=""urn:schemas-microsoft-com:datatypes""><Description dt:dt=""string"">E-Prime Primary Realtime Clock</Description><StartTime><Timestamp dt:dt=""int"">0</Timestamp><DateUtc dt:dt=""string"">2019-09-04T22:17:07Z</DateUtc></StartTime><FrequencyChanges><FrequencyChange><Frequency dt:dt=""r8"">3020380</Frequency><Timestamp dt:dt=""r8"">1854349520219</Timestamp><Current dt:dt=""r8"">0</Current><DateUtc dt:dt=""string"">2019-09-04T22:17:07Z</DateUtc></FrequencyChange></FrequencyChanges></Clock>\n"	000_R01_VB_allProc-74-1	60.023	1.0.0.185	1	-1075782654	Professional	2.0.10.356	2.0.10.356	09-04-2019	n/a	18:17:07	2.0.10.252	5	0	0	998983	14	998983	3998	-999999	1165557	-3	1159191	0	Run1Proc	5	1	5	RunList	6	HighSmallED	8000	0	1151194	0	1151194	0	1151194	0	B1HighSmallEDBlockProc	6.0	1.0	6.0	n/a	n/a	n/a	n/a	n/a	n/a	n/a	n/a	n/a	n/a	n/a	n/a	Run1BlockList	3	n/a	n/a	n/a	n/a	n/a	n/a	n/a	n/a	n/a	n/a	n/a	n/a	n/a	n/a	n/a	3.0	1.0	3.0	n/a	n/a	n/a	n/a	n/a	n/a	n/a	n/a	n/a	n/a	n/a	n/a	n/a	n/a	n/a	n/a	n/a	n/a	n/a	n/a	n/a	n/a	n/a	n/a	n/a	n/a	n/a	n/a	n/a	n/a	n/a	n/a	n/a	n/a	n/a	n/a	n/a	n/a	n/a	n/a	n/a	n/a	n/a	n/a	n/a	n/a	n/a	n/a	n/a	n/a	n/a	n/a	n/a	n/a	n/a	n/a	n/a	n/a	n/a	n/a	n/a	n/a	n/a	n/a	n/a	n/a	n/a	n/a	n/a	n/a	n/a	n/a	B1_03.jpg	500	0	1141698	-1	1141698	0	TrialProc1	B1HighSmallEDBlockList	2500	0	1139199	0	1139199	0	1139199	2499	d	1199	1140398	140.218
143	2.5	000_R01_VB_allProc	74	1	"<?xml version=""1.0""?>\n<Clock xmlns:dt=""urn:schemas-microsoft-com:datatypes""><Description dt:dt=""string"">E-Prime Primary Realtime Clock</Description><StartTime><Timestamp dt:dt=""int"">0</Timestamp><DateUtc dt:dt=""string"">2019-09-04T22:17:07Z</DateUtc></StartTime><FrequencyChanges><FrequencyChange><Frequency dt:dt=""r8"">3020380</Frequency><Timestamp dt:dt=""r8"">1854349520219</Timestamp><Current dt:dt=""r8"">0</Current><DateUtc dt:dt=""string"">2019-09-04T22:17:07Z</DateUtc></FrequencyChange></FrequencyChanges></Clock>\n"	000_R01_VB_allProc-74-1	60.023	1.0.0.185	1	-1075782654	Professional	2.0.10.356	2.0.10.356	09-04-2019	n/a	18:17:07	2.0.10.252	5	0	0	998983	14	998983	3998	-999999	1165557	-3	1159191	0	Run1Proc	5	1	5	RunList	6	HighSmallED	8000	0	1151194	0	1151194	0	1151194	0	B1HighSmallEDBlockProc	6.0	1.0	6.0	n/a	n/a	n/a	n/a	n/a	n/a	n/a	n/a	n/a	n/a	n/a	n/a	Run1BlockList	4	n/a	n/a	n/a	n/a	n/a	n/a	n/a	n/a	n/a	n/a	n/a	n/a	n/a	n/a	n/a	4.0	1.0	4.0	n/a	n/a	n/a	n/a	n/a	n/a	n/a	n/a	n/a	n/a	n/a	n/a	n/a	n/a	n/a	n/a	n/a	n/a	n/a	n/a	n/a	n/a	n/a	n/a	n/a	n/a	n/a	n/a	n/a	n/a	n/a	n/a	n/a	n/a	n/a	n/a	n/a	n/a	n/a	n/a	n/a	n/a	n/a	n/a	n/a	n/a	n/a	n/a	n/a	n/a	n/a	n/a	n/a	n/a	n/a	n/a	n/a	n/a	n/a	n/a	n/a	n/a	n/a	n/a	n/a	n/a	n/a	n/a	n/a	n/a	n/a	n/a	B1_04.jpg	500	0	1144697	0	1144697	0	TrialProc1	B1HighSmallEDBlockList	2500	1	1142198	1	1142198	-1	1142197	2500	c	497	1142694	143.216
146	2.5	000_R01_VB_allProc	74	1	"<?xml version=""1.0""?>\n<Clock xmlns:dt=""urn:schemas-microsoft-com:datatypes""><Description dt:dt=""string"">E-Prime Primary Realtime Clock</Description><StartTime><Timestamp dt:dt=""int"">0</Timestamp><DateUtc dt:dt=""string"">2019-09-04T22:17:07Z</DateUtc></StartTime><FrequencyChanges><FrequencyChange><Frequency dt:dt=""r8"">3020380</Frequency><Timestamp dt:dt=""r8"">1854349520219</Timestamp><Current dt:dt=""r8"">0</Current><DateUtc dt:dt=""string"">2019-09-04T22:17:07Z</DateUtc></FrequencyChange></FrequencyChanges></Clock>\n"	000_R01_VB_allProc-74-1	60.023	1.0.0.185	1	-1075782654	Professional	2.0.10.356	2.0.10.356	09-04-2019	n/a	18:17:07	2.0.10.252	5	0	0	998983	14	998983	3998	-999999	1165557	-3	1159191	0	Run1Proc	5	1	5	RunList	6	HighSmallED	8000	0	1151194	0	1151194	0	1151194	0	B1HighSmallEDBlockProc	6.0	1.0	6.0	n/a	n/a	n/a	n/a	n/a	n/a	n/a	n/a	n/a	n/a	n/a	n/a	Run1BlockList	5	n/a	n/a	n/a	n/a	n/a	n/a	n/a	n/a	n/a	n/a	n/a	n/a	n/a	n/a	n/a	5.0	1.0	5.0	n/a	n/a	n/a	n/a	n/a	n/a	n/a	n/a	n/a	n/a	n/a	n/a	n/a	n/a	n/a	n/a	n/a	n/a	n/a	n/a	n/a	n/a	n/a	n/a	n/a	n/a	n/a	n/a	n/a	n/a	n/a	n/a	n/a	n/a	n/a	n/a	n/a	n/a	n/a	n/a	n/a	n/a	n/a	n/a	n/a	n/a	n/a	n/a	n/a	n/a	n/a	n/a	n/a	n/a	n/a	n/a	n/a	n/a	n/a	n/a	n/a	n/a	n/a	n/a	n/a	n/a	n/a	n/a	n/a	n/a	n/a	n/a	B1_05.jpg	500	1	1147696	-1	1147695	0	TrialProc1	B1HighSmallEDBlockList	2500	0	1145196	0	1145196	-1	1145196	2499	d	1257	1146453	146.215
149	2.5	000_R01_VB_allProc	74	1	"<?xml version=""1.0""?>\n<Clock xmlns:dt=""urn:schemas-microsoft-com:datatypes""><Description dt:dt=""string"">E-Prime Primary Realtime Clock</Description><StartTime><Timestamp dt:dt=""int"">0</Timestamp><DateUtc dt:dt=""string"">2019-09-04T22:17:07Z</DateUtc></StartTime><FrequencyChanges><FrequencyChange><Frequency dt:dt=""r8"">3020380</Frequency><Timestamp dt:dt=""r8"">1854349520219</Timestamp><Current dt:dt=""r8"">0</Current><DateUtc dt:dt=""string"">2019-09-04T22:17:07Z</DateUtc></FrequencyChange></FrequencyChanges></Clock>\n"	000_R01_VB_allProc-74-1	60.023	1.0.0.185	1	-1075782654	Professional	2.0.10.356	2.0.10.356	09-04-2019	n/a	18:17:07	2.0.10.252	5	0	0	998983	14	998983	3998	-999999	1165557	-3	1159191	0	Run1Proc	5	1	5	RunList	6	HighSmallED	8000	0	1151194	0	1151194	0	1151194	0	B1HighSmallEDBlockProc	6.0	1.0	6.0	n/a	n/a	n/a	n/a	n/a	n/a	n/a	n/a	n/a	n/a	n/a	n/a	Run1BlockList	6	n/a	n/a	n/a	n/a	n/a	n/a	n/a	n/a	n/a	n/a	n/a	n/a	n/a	n/a	n/a	6.0	1.0	6.0	n/a	n/a	n/a	n/a	n/a	n/a	n/a	n/a	n/a	n/a	n/a	n/a	n/a	n/a	n/a	n/a	n/a	n/a	n/a	n/a	n/a	n/a	n/a	n/a	n/a	n/a	n/a	n/a	n/a	n/a	n/a	n/a	n/a	n/a	n/a	n/a	n/a	n/a	n/a	n/a	n/a	n/a	n/a	n/a	n/a	n/a	n/a	n/a	n/a	n/a	n/a	n/a	n/a	n/a	n/a	n/a	n/a	n/a	n/a	n/a	n/a	n/a	n/a	n/a	n/a	n/a	n/a	n/a	n/a	n/a	n/a	n/a	B1_06.jpg	500	0	1150694	-1	1150694	0	TrialProc1	B1HighSmallEDBlockList	2500	0	1148195	0	1148195	0	1148195	2499	c	1090	1149285	149.214
