onset	duration	experiment_name	sub	ses	clock_information	datafile_basename	display_refreshrate	experiment_version	group	randomseed	runtime_capabilities	runtime_version	runtimeversionexpected	session_date	session_start_date_time_utc	session_time	studio_version	block	fixation2trs_durationerror	fixation2trs_offsetdelay	fixation2trs_offsettime	fixation2trs_onsetdelay	fixation2trs_onsettime	fixation2trs_onsettoonsettime	goodwork_durationerror	goodwork_finishtime	goodwork_onsetdelay	goodwork_onsettime	goodwork_onsettoonsettime	procedure_block	runlist	runlist_cycle	runlist_sample	running_block	trial	condition	interblockinterval_duration	interblockinterval_durationerror	interblockinterval_finishtime	interblockinterval_offsetdelay	interblockinterval_offsettime	interblockinterval_onsetdelay	interblockinterval_onsettime	interblockinterval_onsettoonsettime	procedure_trial	run1blocklist	run1blocklist_cycle	run1blocklist_sample	run3blocklist	run3blocklist_cycle	run3blocklist_sample	run4blocklist	run4blocklist_cycle	run4blocklist_sample	run5blocklist	run5blocklist_cycle	run5blocklist_sample	running_trial	subtrial	a1highlargeedblocklist	a1highlargeedblocklist_cycle	a1highlargeedblocklist_sample	a3highlargeedblocklist	a3highlargeedblocklist_cycle	a3highlargeedblocklist_sample	a4highlargeedblocklist	a4highlargeedblocklist_cycle	a4highlargeedblocklist_sample	a5highlargeedblocklist	a5highlargeedblocklist_cycle	a5highlargeedblocklist_sample	b1highsmalledblocklist	b1highsmalledblocklist_cycle	b1highsmalledblocklist_sample	b3highsmalledblocklist	b3highsmalledblocklist_cycle	b3highsmalledblocklist_sample	b4highsmalledblocklist	b4highsmalledblocklist_cycle	b4highsmalledblocklist_sample	b5highsmalledblocklist	b5highsmalledblocklist_cycle	b5highsmalledblocklist_sample	c1lowlargeedblocklist	c1lowlargeedblocklist_cycle	c1lowlargeedblocklist_sample	c3lowlargeedblocklist	c3lowlargeedblocklist_cycle	c3lowlargeedblocklist_sample	c4lowlargeedblocklist	c4lowlargeedblocklist_cycle	c4lowlargeedblocklist_sample	c5lowlargeedblocklist	c5lowlargeedblocklist_cycle	c5lowlargeedblocklist_sample	d1lowsmalledblocklist	d1lowsmalledblocklist_cycle	d1lowsmalledblocklist_sample	d3lowsmalledblocklist	d3lowsmalledblocklist_cycle	d3lowsmalledblocklist_sample	d4lowsmalledblocklist	d4lowsmalledblocklist_cycle	d4lowsmalledblocklist_sample	d5lowsmalledblocklist	d5lowsmalledblocklist_cycle	d5lowsmalledblocklist_sample	e1officelargeblocklist	e1officelargeblocklist_cycle	e1officelargeblocklist_sample	e3officelargeblocklist	e3officelargeblocklist_cycle	e3officelargeblocklist_sample	e4officelargeblocklist	e4officelargeblocklist_cycle	e4officelargeblocklist_sample	e5officelargeblocklist	e5officelargeblocklist_cycle	e5officelargeblocklist_sample	f1officesmallblocklist	f1officesmallblocklist_cycle	f1officesmallblocklist_sample	f3officesmallblocklist	f3officesmallblocklist_cycle	f3officesmallblocklist_sample	f4officesmallblocklist	f4officesmallblocklist_cycle	f4officesmallblocklist_sample	f5officesmallblocklist	f5officesmallblocklist_cycle	f5officesmallblocklist_sample	filename	isi_duration	isi_durationerror	isi_finishtime	isi_onsetdelay	isi_onsettime	isi_onsettoonsettime	procedure_subtrial	running_subtrial	stimslide_duration	stimslide_durationerror	stimslide_finishtime	stimslide_offsetdelay	stimslide_offsettime	stimslide_onsetdelay	stimslide_onsettime	stimslide_onsettoonsettime	stimslide_resp	stimslide_rt	stimslide_rttime	onset_unrounded
4	2.5	000_R01_VA_allProc	130	1	"<?xml version=""1.0""?>\n<Clock xmlns:dt=""urn:schemas-microsoft-com:datatypes""><Description dt:dt=""string"">E-Prime Primary Realtime Clock</Description><StartTime><Timestamp dt:dt=""int"">0</Timestamp><DateUtc dt:dt=""string"">2022-05-11T20:31:51Z</DateUtc></StartTime><FrequencyChanges><FrequencyChange><Frequency dt:dt=""r8"">3020371</Frequency><Timestamp dt:dt=""r8"">598641600637</Timestamp><Current dt:dt=""r8"">0</Current><DateUtc dt:dt=""string"">2022-05-11T20:31:51Z</DateUtc></FrequencyChange></FrequencyChanges></Clock>\n"	000_R01_VA_allProc-130-1	60.001	1.0.0.229	1	1641759171	Professional	2.0.10.356	2.0.10.356	05-11-2022	5/11/2022 8:31:51 PM	16:31:51	2.0.10.252	1	0.0	0.0	84806.0	21.0	84806.0	4000.0	-999999.0	310985.0	0.0	244804.0	0.0	Run1Proc	1	1	1	RunList	1.0	HighLargeED	8000.0	0.0	106805.0	0.0	106805.0	0.0	106805.0	0.0	A1HighLargeEDBlockProc	1.0	1.0	1.0	n/a	n/a	n/a	n/a	n/a	n/a	n/a	n/a	n/a	Run1BlockList	1.0	1.0	1.0	1.0	n/a	n/a	n/a	n/a	n/a	n/a	n/a	n/a	n/a	n/a	n/a	n/a	n/a	n/a	n/a	n/a	n/a	n/a	n/a	n/a	n/a	n/a	n/a	n/a	n/a	n/a	n/a	n/a	n/a	n/a	n/a	n/a	n/a	n/a	n/a	n/a	n/a	n/a	n/a	n/a	n/a	n/a	n/a	n/a	n/a	n/a	n/a	n/a	n/a	n/a	n/a	n/a	n/a	n/a	n/a	n/a	n/a	n/a	n/a	n/a	n/a	n/a	n/a	n/a	n/a	n/a	n/a	n/a	n/a	A1_01.jpg	500.0	0.0	91306.0	0.0	91306.0	0.0	TrialProc1	A1HighLargeEDBlockList	2500.0	0.0	88806.0	0.0	88806.0	0.0	88806.0	2500.0	d	1541.0	90347.0	4.0
7	2.5	000_R01_VA_allProc	130	1	"<?xml version=""1.0""?>\n<Clock xmlns:dt=""urn:schemas-microsoft-com:datatypes""><Description dt:dt=""string"">E-Prime Primary Realtime Clock</Description><StartTime><Timestamp dt:dt=""int"">0</Timestamp><DateUtc dt:dt=""string"">2022-05-11T20:31:51Z</DateUtc></StartTime><FrequencyChanges><FrequencyChange><Frequency dt:dt=""r8"">3020371</Frequency><Timestamp dt:dt=""r8"">598641600637</Timestamp><Current dt:dt=""r8"">0</Current><DateUtc dt:dt=""string"">2022-05-11T20:31:51Z</DateUtc></FrequencyChange></FrequencyChanges></Clock>\n"	000_R01_VA_allProc-130-1	60.001	1.0.0.229	1	1641759171	Professional	2.0.10.356	2.0.10.356	05-11-2022	5/11/2022 8:31:51 PM	16:31:51	2.0.10.252	1	0.0	0.0	84806.0	21.0	84806.0	4000.0	-999999.0	310985.0	0.0	244804.0	0.0	Run1Proc	1	1	1	RunList	1.0	HighLargeED	8000.0	0.0	106805.0	0.0	106805.0	0.0	106805.0	0.0	A1HighLargeEDBlockProc	1.0	1.0	1.0	n/a	n/a	n/a	n/a	n/a	n/a	n/a	n/a	n/a	Run1BlockList	2.0	2.0	1.0	2.0	n/a	n/a	n/a	n/a	n/a	n/a	n/a	n/a	n/a	n/a	n/a	n/a	n/a	n/a	n/a	n/a	n/a	n/a	n/a	n/a	n/a	n/a	n/a	n/a	n/a	n/a	n/a	n/a	n/a	n/a	n/a	n/a	n/a	n/a	n/a	n/a	n/a	n/a	n/a	n/a	n/a	n/a	n/a	n/a	n/a	n/a	n/a	n/a	n/a	n/a	n/a	n/a	n/a	n/a	n/a	n/a	n/a	n/a	n/a	n/a	n/a	n/a	n/a	n/a	n/a	n/a	n/a	n/a	n/a	A1_02.jpg	500.0	1.0	94306.0	-1.0	94305.0	0.0	TrialProc1	A1HighLargeEDBlockList	2500.0	0.0	91806.0	0.0	91806.0	0.0	91806.0	2499.0	d	1181.0	92987.0	7.0
10	2.5	000_R01_VA_allProc	130	1	"<?xml version=""1.0""?>\n<Clock xmlns:dt=""urn:schemas-microsoft-com:datatypes""><Description dt:dt=""string"">E-Prime Primary Realtime Clock</Description><StartTime><Timestamp dt:dt=""int"">0</Timestamp><DateUtc dt:dt=""string"">2022-05-11T20:31:51Z</DateUtc></StartTime><FrequencyChanges><FrequencyChange><Frequency dt:dt=""r8"">3020371</Frequency><Timestamp dt:dt=""r8"">598641600637</Timestamp><Current dt:dt=""r8"">0</Current><DateUtc dt:dt=""string"">2022-05-11T20:31:51Z</DateUtc></FrequencyChange></FrequencyChanges></Clock>\n"	000_R01_VA_allProc-130-1	60.001	1.0.0.229	1	1641759171	Professional	2.0.10.356	2.0.10.356	05-11-2022	5/11/2022 8:31:51 PM	16:31:51	2.0.10.252	1	0.0	0.0	84806.0	21.0	84806.0	4000.0	-999999.0	310985.0	0.0	244804.0	0.0	Run1Proc	1	1	1	RunList	1.0	HighLargeED	8000.0	0.0	106805.0	0.0	106805.0	0.0	106805.0	0.0	A1HighLargeEDBlockProc	1.0	1.0	1.0	n/a	n/a	n/a	n/a	n/a	n/a	n/a	n/a	n/a	Run1BlockList	3.0	3.0	1.0	3.0	n/a	n/a	n/a	n/a	n/a	n/a	n/a	n/a	n/a	n/a	n/a	n/a	n/a	n/a	n/a	n/a	n/a	n/a	n/a	n/a	n/a	n/a	n/a	n/a	n/a	n/a	n/a	n/a	n/a	n/a	n/a	n/a	n/a	n/a	n/a	n/a	n/a	n/a	n/a	n/a	n/a	n/a	n/a	n/a	n/a	n/a	n/a	n/a	n/a	n/a	n/a	n/a	n/a	n/a	n/a	n/a	n/a	n/a	n/a	n/a	n/a	n/a	n/a	n/a	n/a	n/a	n/a	n/a	n/a	A1_03.jpg	500.0	1.0	97306.0	0.0	97305.0	0.0	TrialProc1	A1HighLargeEDBlockList	2500.0	1.0	94806.0	1.0	94806.0	0.0	94805.0	2500.0	d	1422.0	96227.0	9.998999999999999
13	2.5	000_R01_VA_allProc	130	1	"<?xml version=""1.0""?>\n<Clock xmlns:dt=""urn:schemas-microsoft-com:datatypes""><Description dt:dt=""string"">E-Prime Primary Realtime Clock</Description><StartTime><Timestamp dt:dt=""int"">0</Timestamp><DateUtc dt:dt=""string"">2022-05-11T20:31:51Z</DateUtc></StartTime><FrequencyChanges><FrequencyChange><Frequency dt:dt=""r8"">3020371</Frequency><Timestamp dt:dt=""r8"">598641600637</Timestamp><Current dt:dt=""r8"">0</Current><DateUtc dt:dt=""string"">2022-05-11T20:31:51Z</DateUtc></FrequencyChange></FrequencyChanges></Clock>\n"	000_R01_VA_allProc-130-1	60.001	1.0.0.229	1	1641759171	Professional	2.0.10.356	2.0.10.356	05-11-2022	5/11/2022 8:31:51 PM	16:31:51	2.0.10.252	1	0.0	0.0	84806.0	21.0	84806.0	4000.0	-999999.0	310985.0	0.0	244804.0	0.0	Run1Proc	1	1	1	RunList	1.0	HighLargeED	8000.0	0.0	106805.0	0.0	106805.0	0.0	106805.0	0.0	A1HighLargeEDBlockProc	1.0	1.0	1.0	n/a	n/a	n/a	n/a	n/a	n/a	n/a	n/a	n/a	Run1BlockList	4.0	4.0	1.0	4.0	n/a	n/a	n/a	n/a	n/a	n/a	n/a	n/a	n/a	n/a	n/a	n/a	n/a	n/a	n/a	n/a	n/a	n/a	n/a	n/a	n/a	n/a	n/a	n/a	n/a	n/a	n/a	n/a	n/a	n/a	n/a	n/a	n/a	n/a	n/a	n/a	n/a	n/a	n/a	n/a	n/a	n/a	n/a	n/a	n/a	n/a	n/a	n/a	n/a	n/a	n/a	n/a	n/a	n/a	n/a	n/a	n/a	n/a	n/a	n/a	n/a	n/a	n/a	n/a	n/a	n/a	n/a	n/a	n/a	A1_04.jpg	500.0	1.0	100306.0	0.0	100305.0	0.0	TrialProc1	A1HighLargeEDBlockList	2500.0	1.0	97806.0	1.0	97806.0	0.0	97805.0	2500.0	d	910.0	98715.0	12.999
16	2.5	000_R01_VA_allProc	130	1	"<?xml version=""1.0""?>\n<Clock xmlns:dt=""urn:schemas-microsoft-com:datatypes""><Description dt:dt=""string"">E-Prime Primary Realtime Clock</Description><StartTime><Timestamp dt:dt=""int"">0</Timestamp><DateUtc dt:dt=""string"">2022-05-11T20:31:51Z</DateUtc></StartTime><FrequencyChanges><FrequencyChange><Frequency dt:dt=""r8"">3020371</Frequency><Timestamp dt:dt=""r8"">598641600637</Timestamp><Current dt:dt=""r8"">0</Current><DateUtc dt:dt=""string"">2022-05-11T20:31:51Z</DateUtc></FrequencyChange></FrequencyChanges></Clock>\n"	000_R01_VA_allProc-130-1	60.001	1.0.0.229	1	1641759171	Professional	2.0.10.356	2.0.10.356	05-11-2022	5/11/2022 8:31:51 PM	16:31:51	2.0.10.252	1	0.0	0.0	84806.0	21.0	84806.0	4000.0	-999999.0	310985.0	0.0	244804.0	0.0	Run1Proc	1	1	1	RunList	1.0	HighLargeED	8000.0	0.0	106805.0	0.0	106805.0	0.0	106805.0	0.0	A1HighLargeEDBlockProc	1.0	1.0	1.0	n/a	n/a	n/a	n/a	n/a	n/a	n/a	n/a	n/a	Run1BlockList	5.0	5.0	1.0	5.0	n/a	n/a	n/a	n/a	n/a	n/a	n/a	n/a	n/a	n/a	n/a	n/a	n/a	n/a	n/a	n/a	n/a	n/a	n/a	n/a	n/a	n/a	n/a	n/a	n/a	n/a	n/a	n/a	n/a	n/a	n/a	n/a	n/a	n/a	n/a	n/a	n/a	n/a	n/a	n/a	n/a	n/a	n/a	n/a	n/a	n/a	n/a	n/a	n/a	n/a	n/a	n/a	n/a	n/a	n/a	n/a	n/a	n/a	n/a	n/a	n/a	n/a	n/a	n/a	n/a	n/a	n/a	n/a	n/a	A1_05.jpg	500.0	0.0	103305.0	0.0	103305.0	0.0	TrialProc1	A1HighLargeEDBlockList	2500.0	1.0	100806.0	1.0	100806.0	0.0	100805.0	2500.0	d	1174.0	101979.0	15.999
19	2.5	000_R01_VA_allProc	130	1	"<?xml version=""1.0""?>\n<Clock xmlns:dt=""urn:schemas-microsoft-com:datatypes""><Description dt:dt=""string"">E-Prime Primary Realtime Clock</Description><StartTime><Timestamp dt:dt=""int"">0</Timestamp><DateUtc dt:dt=""string"">2022-05-11T20:31:51Z</DateUtc></StartTime><FrequencyChanges><FrequencyChange><Frequency dt:dt=""r8"">3020371</Frequency><Timestamp dt:dt=""r8"">598641600637</Timestamp><Current dt:dt=""r8"">0</Current><DateUtc dt:dt=""string"">2022-05-11T20:31:51Z</DateUtc></FrequencyChange></FrequencyChanges></Clock>\n"	000_R01_VA_allProc-130-1	60.001	1.0.0.229	1	1641759171	Professional	2.0.10.356	2.0.10.356	05-11-2022	5/11/2022 8:31:51 PM	16:31:51	2.0.10.252	1	0.0	0.0	84806.0	21.0	84806.0	4000.0	-999999.0	310985.0	0.0	244804.0	0.0	Run1Proc	1	1	1	RunList	1.0	HighLargeED	8000.0	0.0	106805.0	0.0	106805.0	0.0	106805.0	0.0	A1HighLargeEDBlockProc	1.0	1.0	1.0	n/a	n/a	n/a	n/a	n/a	n/a	n/a	n/a	n/a	Run1BlockList	6.0	6.0	1.0	6.0	n/a	n/a	n/a	n/a	n/a	n/a	n/a	n/a	n/a	n/a	n/a	n/a	n/a	n/a	n/a	n/a	n/a	n/a	n/a	n/a	n/a	n/a	n/a	n/a	n/a	n/a	n/a	n/a	n/a	n/a	n/a	n/a	n/a	n/a	n/a	n/a	n/a	n/a	n/a	n/a	n/a	n/a	n/a	n/a	n/a	n/a	n/a	n/a	n/a	n/a	n/a	n/a	n/a	n/a	n/a	n/a	n/a	n/a	n/a	n/a	n/a	n/a	n/a	n/a	n/a	n/a	n/a	n/a	n/a	A1_06.jpg	500.0	0.0	106305.0	0.0	106305.0	0.0	TrialProc1	A1HighLargeEDBlockList	2500.0	0.0	103805.0	0.0	103805.0	0.0	103805.0	2500.0	d	1126.0	104931.0	18.999000000000002
30	2.5	000_R01_VA_allProc	130	1	"<?xml version=""1.0""?>\n<Clock xmlns:dt=""urn:schemas-microsoft-com:datatypes""><Description dt:dt=""string"">E-Prime Primary Realtime Clock</Description><StartTime><Timestamp dt:dt=""int"">0</Timestamp><DateUtc dt:dt=""string"">2022-05-11T20:31:51Z</DateUtc></StartTime><FrequencyChanges><FrequencyChange><Frequency dt:dt=""r8"">3020371</Frequency><Timestamp dt:dt=""r8"">598641600637</Timestamp><Current dt:dt=""r8"">0</Current><DateUtc dt:dt=""string"">2022-05-11T20:31:51Z</DateUtc></FrequencyChange></FrequencyChanges></Clock>\n"	000_R01_VA_allProc-130-1	60.001	1.0.0.229	1	1641759171	Professional	2.0.10.356	2.0.10.356	05-11-2022	5/11/2022 8:31:51 PM	16:31:51	2.0.10.252	1	0.0	0.0	84806.0	21.0	84806.0	4000.0	-999999.0	310985.0	0.0	244804.0	0.0	Run1Proc	1	1	1	RunList	2.0	OfficeSmall	8000.0	0.0	132805.0	0.0	132805.0	0.0	132805.0	0.0	F1OfficeSmallBlockProc	2.0	1.0	2.0	n/a	n/a	n/a	n/a	n/a	n/a	n/a	n/a	n/a	Run1BlockList	1.0	n/a	n/a	n/a	n/a	n/a	n/a	n/a	n/a	n/a	n/a	n/a	n/a	n/a	n/a	n/a	n/a	n/a	n/a	n/a	n/a	n/a	n/a	n/a	n/a	n/a	n/a	n/a	n/a	n/a	n/a	n/a	n/a	n/a	n/a	n/a	n/a	n/a	n/a	n/a	n/a	n/a	n/a	n/a	n/a	n/a	n/a	n/a	n/a	n/a	n/a	n/a	n/a	n/a	n/a	n/a	n/a	n/a	n/a	n/a	n/a	1.0	1.0	1.0	n/a	n/a	n/a	n/a	n/a	n/a	n/a	n/a	n/a	F1_01.jpg	500.0	0.0	117305.0	0.0	117305.0	0.0	TrialProc1	F1OfficeSmallBlockList	2500.0	0.0	114805.0	0.0	114805.0	0.0	114805.0	2500.0	d	926.0	115731.0	29.999
33	2.5	000_R01_VA_allProc	130	1	"<?xml version=""1.0""?>\n<Clock xmlns:dt=""urn:schemas-microsoft-com:datatypes""><Description dt:dt=""string"">E-Prime Primary Realtime Clock</Description><StartTime><Timestamp dt:dt=""int"">0</Timestamp><DateUtc dt:dt=""string"">2022-05-11T20:31:51Z</DateUtc></StartTime><FrequencyChanges><FrequencyChange><Frequency dt:dt=""r8"">3020371</Frequency><Timestamp dt:dt=""r8"">598641600637</Timestamp><Current dt:dt=""r8"">0</Current><DateUtc dt:dt=""string"">2022-05-11T20:31:51Z</DateUtc></FrequencyChange></FrequencyChanges></Clock>\n"	000_R01_VA_allProc-130-1	60.001	1.0.0.229	1	1641759171	Professional	2.0.10.356	2.0.10.356	05-11-2022	5/11/2022 8:31:51 PM	16:31:51	2.0.10.252	1	0.0	0.0	84806.0	21.0	84806.0	4000.0	-999999.0	310985.0	0.0	244804.0	0.0	Run1Proc	1	1	1	RunList	2.0	OfficeSmall	8000.0	0.0	132805.0	0.0	132805.0	0.0	132805.0	0.0	F1OfficeSmallBlockProc	2.0	1.0	2.0	n/a	n/a	n/a	n/a	n/a	n/a	n/a	n/a	n/a	Run1BlockList	2.0	n/a	n/a	n/a	n/a	n/a	n/a	n/a	n/a	n/a	n/a	n/a	n/a	n/a	n/a	n/a	n/a	n/a	n/a	n/a	n/a	n/a	n/a	n/a	n/a	n/a	n/a	n/a	n/a	n/a	n/a	n/a	n/a	n/a	n/a	n/a	n/a	n/a	n/a	n/a	n/a	n/a	n/a	n/a	n/a	n/a	n/a	n/a	n/a	n/a	n/a	n/a	n/a	n/a	n/a	n/a	n/a	n/a	n/a	n/a	n/a	2.0	1.0	2.0	n/a	n/a	n/a	n/a	n/a	n/a	n/a	n/a	n/a	F1_02.jpg	500.0	0.0	120305.0	0.0	120305.0	0.0	TrialProc1	F1OfficeSmallBlockList	2500.0	0.0	117805.0	0.0	117805.0	0.0	117805.0	2500.0	d	1214.0	119019.0	32.998999999999995
36	2.5	000_R01_VA_allProc	130	1	"<?xml version=""1.0""?>\n<Clock xmlns:dt=""urn:schemas-microsoft-com:datatypes""><Description dt:dt=""string"">E-Prime Primary Realtime Clock</Description><StartTime><Timestamp dt:dt=""int"">0</Timestamp><DateUtc dt:dt=""string"">2022-05-11T20:31:51Z</DateUtc></StartTime><FrequencyChanges><FrequencyChange><Frequency dt:dt=""r8"">3020371</Frequency><Timestamp dt:dt=""r8"">598641600637</Timestamp><Current dt:dt=""r8"">0</Current><DateUtc dt:dt=""string"">2022-05-11T20:31:51Z</DateUtc></FrequencyChange></FrequencyChanges></Clock>\n"	000_R01_VA_allProc-130-1	60.001	1.0.0.229	1	1641759171	Professional	2.0.10.356	2.0.10.356	05-11-2022	5/11/2022 8:31:51 PM	16:31:51	2.0.10.252	1	0.0	0.0	84806.0	21.0	84806.0	4000.0	-999999.0	310985.0	0.0	244804.0	0.0	Run1Proc	1	1	1	RunList	2.0	OfficeSmall	8000.0	0.0	132805.0	0.0	132805.0	0.0	132805.0	0.0	F1OfficeSmallBlockProc	2.0	1.0	2.0	n/a	n/a	n/a	n/a	n/a	n/a	n/a	n/a	n/a	Run1BlockList	3.0	n/a	n/a	n/a	n/a	n/a	n/a	n/a	n/a	n/a	n/a	n/a	n/a	n/a	n/a	n/a	n/a	n/a	n/a	n/a	n/a	n/a	n/a	n/a	n/a	n/a	n/a	n/a	n/a	n/a	n/a	n/a	n/a	n/a	n/a	n/a	n/a	n/a	n/a	n/a	n/a	n/a	n/a	n/a	n/a	n/a	n/a	n/a	n/a	n/a	n/a	n/a	n/a	n/a	n/a	n/a	n/a	n/a	n/a	n/a	n/a	3.0	1.0	3.0	n/a	n/a	n/a	n/a	n/a	n/a	n/a	n/a	n/a	F1_03.jpg	500.0	0.0	123305.0	0.0	123305.0	0.0	TrialProc1	F1OfficeSmallBlockList	2500.0	0.0	120805.0	0.0	120805.0	0.0	120805.0	2500.0	d	806.0	121611.0	35.998999999999995
39	2.5	000_R01_VA_allProc	130	1	"<?xml version=""1.0""?>\n<Clock xmlns:dt=""urn:schemas-microsoft-com:datatypes""><Description dt:dt=""string"">E-Prime Primary Realtime Clock</Description><StartTime><Timestamp dt:dt=""int"">0</Timestamp><DateUtc dt:dt=""string"">2022-05-11T20:31:51Z</DateUtc></StartTime><FrequencyChanges><FrequencyChange><Frequency dt:dt=""r8"">3020371</Frequency><Timestamp dt:dt=""r8"">598641600637</Timestamp><Current dt:dt=""r8"">0</Current><DateUtc dt:dt=""string"">2022-05-11T20:31:51Z</DateUtc></FrequencyChange></FrequencyChanges></Clock>\n"	000_R01_VA_allProc-130-1	60.001	1.0.0.229	1	1641759171	Professional	2.0.10.356	2.0.10.356	05-11-2022	5/11/2022 8:31:51 PM	16:31:51	2.0.10.252	1	0.0	0.0	84806.0	21.0	84806.0	4000.0	-999999.0	310985.0	0.0	244804.0	0.0	Run1Proc	1	1	1	RunList	2.0	OfficeSmall	8000.0	0.0	132805.0	0.0	132805.0	0.0	132805.0	0.0	F1OfficeSmallBlockProc	2.0	1.0	2.0	n/a	n/a	n/a	n/a	n/a	n/a	n/a	n/a	n/a	Run1BlockList	4.0	n/a	n/a	n/a	n/a	n/a	n/a	n/a	n/a	n/a	n/a	n/a	n/a	n/a	n/a	n/a	n/a	n/a	n/a	n/a	n/a	n/a	n/a	n/a	n/a	n/a	n/a	n/a	n/a	n/a	n/a	n/a	n/a	n/a	n/a	n/a	n/a	n/a	n/a	n/a	n/a	n/a	n/a	n/a	n/a	n/a	n/a	n/a	n/a	n/a	n/a	n/a	n/a	n/a	n/a	n/a	n/a	n/a	n/a	n/a	n/a	4.0	1.0	4.0	n/a	n/a	n/a	n/a	n/a	n/a	n/a	n/a	n/a	F1_04.jpg	500.0	0.0	126305.0	0.0	126305.0	0.0	TrialProc1	F1OfficeSmallBlockList	2500.0	0.0	123805.0	0.0	123805.0	0.0	123805.0	2500.0	d	926.0	124731.0	38.999
42	2.5	000_R01_VA_allProc	130	1	"<?xml version=""1.0""?>\n<Clock xmlns:dt=""urn:schemas-microsoft-com:datatypes""><Description dt:dt=""string"">E-Prime Primary Realtime Clock</Description><StartTime><Timestamp dt:dt=""int"">0</Timestamp><DateUtc dt:dt=""string"">2022-05-11T20:31:51Z</DateUtc></StartTime><FrequencyChanges><FrequencyChange><Frequency dt:dt=""r8"">3020371</Frequency><Timestamp dt:dt=""r8"">598641600637</Timestamp><Current dt:dt=""r8"">0</Current><DateUtc dt:dt=""string"">2022-05-11T20:31:51Z</DateUtc></FrequencyChange></FrequencyChanges></Clock>\n"	000_R01_VA_allProc-130-1	60.001	1.0.0.229	1	1641759171	Professional	2.0.10.356	2.0.10.356	05-11-2022	5/11/2022 8:31:51 PM	16:31:51	2.0.10.252	1	0.0	0.0	84806.0	21.0	84806.0	4000.0	-999999.0	310985.0	0.0	244804.0	0.0	Run1Proc	1	1	1	RunList	2.0	OfficeSmall	8000.0	0.0	132805.0	0.0	132805.0	0.0	132805.0	0.0	F1OfficeSmallBlockProc	2.0	1.0	2.0	n/a	n/a	n/a	n/a	n/a	n/a	n/a	n/a	n/a	Run1BlockList	5.0	n/a	n/a	n/a	n/a	n/a	n/a	n/a	n/a	n/a	n/a	n/a	n/a	n/a	n/a	n/a	n/a	n/a	n/a	n/a	n/a	n/a	n/a	n/a	n/a	n/a	n/a	n/a	n/a	n/a	n/a	n/a	n/a	n/a	n/a	n/a	n/a	n/a	n/a	n/a	n/a	n/a	n/a	n/a	n/a	n/a	n/a	n/a	n/a	n/a	n/a	n/a	n/a	n/a	n/a	n/a	n/a	n/a	n/a	n/a	n/a	5.0	1.0	5.0	n/a	n/a	n/a	n/a	n/a	n/a	n/a	n/a	n/a	F1_05.jpg	500.0	0.0	129305.0	0.0	129305.0	0.0	TrialProc1	F1OfficeSmallBlockList	2500.0	0.0	126805.0	0.0	126805.0	0.0	126805.0	2500.0	d	1294.0	128099.0	41.999
45	2.5	000_R01_VA_allProc	130	1	"<?xml version=""1.0""?>\n<Clock xmlns:dt=""urn:schemas-microsoft-com:datatypes""><Description dt:dt=""string"">E-Prime Primary Realtime Clock</Description><StartTime><Timestamp dt:dt=""int"">0</Timestamp><DateUtc dt:dt=""string"">2022-05-11T20:31:51Z</DateUtc></StartTime><FrequencyChanges><FrequencyChange><Frequency dt:dt=""r8"">3020371</Frequency><Timestamp dt:dt=""r8"">598641600637</Timestamp><Current dt:dt=""r8"">0</Current><DateUtc dt:dt=""string"">2022-05-11T20:31:51Z</DateUtc></FrequencyChange></FrequencyChanges></Clock>\n"	000_R01_VA_allProc-130-1	60.001	1.0.0.229	1	1641759171	Professional	2.0.10.356	2.0.10.356	05-11-2022	5/11/2022 8:31:51 PM	16:31:51	2.0.10.252	1	0.0	0.0	84806.0	21.0	84806.0	4000.0	-999999.0	310985.0	0.0	244804.0	0.0	Run1Proc	1	1	1	RunList	2.0	OfficeSmall	8000.0	0.0	132805.0	0.0	132805.0	0.0	132805.0	0.0	F1OfficeSmallBlockProc	2.0	1.0	2.0	n/a	n/a	n/a	n/a	n/a	n/a	n/a	n/a	n/a	Run1BlockList	6.0	n/a	n/a	n/a	n/a	n/a	n/a	n/a	n/a	n/a	n/a	n/a	n/a	n/a	n/a	n/a	n/a	n/a	n/a	n/a	n/a	n/a	n/a	n/a	n/a	n/a	n/a	n/a	n/a	n/a	n/a	n/a	n/a	n/a	n/a	n/a	n/a	n/a	n/a	n/a	n/a	n/a	n/a	n/a	n/a	n/a	n/a	n/a	n/a	n/a	n/a	n/a	n/a	n/a	n/a	n/a	n/a	n/a	n/a	n/a	n/a	6.0	1.0	6.0	n/a	n/a	n/a	n/a	n/a	n/a	n/a	n/a	n/a	F1_06.jpg	500.0	0.0	132305.0	0.0	132305.0	0.0	TrialProc1	F1OfficeSmallBlockList	2500.0	0.0	129805.0	0.0	129805.0	0.0	129805.0	2500.0	d	934.0	130739.0	44.999
56	2.5	000_R01_VA_allProc	130	1	"<?xml version=""1.0""?>\n<Clock xmlns:dt=""urn:schemas-microsoft-com:datatypes""><Description dt:dt=""string"">E-Prime Primary Realtime Clock</Description><StartTime><Timestamp dt:dt=""int"">0</Timestamp><DateUtc dt:dt=""string"">2022-05-11T20:31:51Z</DateUtc></StartTime><FrequencyChanges><FrequencyChange><Frequency dt:dt=""r8"">3020371</Frequency><Timestamp dt:dt=""r8"">598641600637</Timestamp><Current dt:dt=""r8"">0</Current><DateUtc dt:dt=""string"">2022-05-11T20:31:51Z</DateUtc></FrequencyChange></FrequencyChanges></Clock>\n"	000_R01_VA_allProc-130-1	60.001	1.0.0.229	1	1641759171	Professional	2.0.10.356	2.0.10.356	05-11-2022	5/11/2022 8:31:51 PM	16:31:51	2.0.10.252	1	0.0	0.0	84806.0	21.0	84806.0	4000.0	-999999.0	310985.0	0.0	244804.0	0.0	Run1Proc	1	1	1	RunList	3.0	LowLargeED	8000.0	0.0	158805.0	0.0	158805.0	0.0	158805.0	0.0	C1LowLargeEDBlockProc	3.0	1.0	3.0	n/a	n/a	n/a	n/a	n/a	n/a	n/a	n/a	n/a	Run1BlockList	1.0	n/a	n/a	n/a	n/a	n/a	n/a	n/a	n/a	n/a	n/a	n/a	n/a	n/a	n/a	n/a	n/a	n/a	n/a	n/a	n/a	n/a	n/a	n/a	n/a	1.0	1.0	1.0	n/a	n/a	n/a	n/a	n/a	n/a	n/a	n/a	n/a	n/a	n/a	n/a	n/a	n/a	n/a	n/a	n/a	n/a	n/a	n/a	n/a	n/a	n/a	n/a	n/a	n/a	n/a	n/a	n/a	n/a	n/a	n/a	n/a	n/a	n/a	n/a	n/a	n/a	n/a	n/a	n/a	n/a	n/a	n/a	n/a	C1_01.jpg	500.0	0.0	143305.0	0.0	143305.0	0.0	TrialProc1	C1LowLargeEDBlockList	2500.0	0.0	140805.0	0.0	140805.0	0.0	140805.0	2500.0	d	846.0	141651.0	55.999
59	2.5	000_R01_VA_allProc	130	1	"<?xml version=""1.0""?>\n<Clock xmlns:dt=""urn:schemas-microsoft-com:datatypes""><Description dt:dt=""string"">E-Prime Primary Realtime Clock</Description><StartTime><Timestamp dt:dt=""int"">0</Timestamp><DateUtc dt:dt=""string"">2022-05-11T20:31:51Z</DateUtc></StartTime><FrequencyChanges><FrequencyChange><Frequency dt:dt=""r8"">3020371</Frequency><Timestamp dt:dt=""r8"">598641600637</Timestamp><Current dt:dt=""r8"">0</Current><DateUtc dt:dt=""string"">2022-05-11T20:31:51Z</DateUtc></FrequencyChange></FrequencyChanges></Clock>\n"	000_R01_VA_allProc-130-1	60.001	1.0.0.229	1	1641759171	Professional	2.0.10.356	2.0.10.356	05-11-2022	5/11/2022 8:31:51 PM	16:31:51	2.0.10.252	1	0.0	0.0	84806.0	21.0	84806.0	4000.0	-999999.0	310985.0	0.0	244804.0	0.0	Run1Proc	1	1	1	RunList	3.0	LowLargeED	8000.0	0.0	158805.0	0.0	158805.0	0.0	158805.0	0.0	C1LowLargeEDBlockProc	3.0	1.0	3.0	n/a	n/a	n/a	n/a	n/a	n/a	n/a	n/a	n/a	Run1BlockList	2.0	n/a	n/a	n/a	n/a	n/a	n/a	n/a	n/a	n/a	n/a	n/a	n/a	n/a	n/a	n/a	n/a	n/a	n/a	n/a	n/a	n/a	n/a	n/a	n/a	2.0	1.0	2.0	n/a	n/a	n/a	n/a	n/a	n/a	n/a	n/a	n/a	n/a	n/a	n/a	n/a	n/a	n/a	n/a	n/a	n/a	n/a	n/a	n/a	n/a	n/a	n/a	n/a	n/a	n/a	n/a	n/a	n/a	n/a	n/a	n/a	n/a	n/a	n/a	n/a	n/a	n/a	n/a	n/a	n/a	n/a	n/a	n/a	C1_02.jpg	500.0	0.0	146305.0	0.0	146305.0	0.0	TrialProc1	C1LowLargeEDBlockList	2500.0	0.0	143805.0	0.0	143805.0	0.0	143805.0	2500.0	d	838.0	144643.0	58.999
62	2.5	000_R01_VA_allProc	130	1	"<?xml version=""1.0""?>\n<Clock xmlns:dt=""urn:schemas-microsoft-com:datatypes""><Description dt:dt=""string"">E-Prime Primary Realtime Clock</Description><StartTime><Timestamp dt:dt=""int"">0</Timestamp><DateUtc dt:dt=""string"">2022-05-11T20:31:51Z</DateUtc></StartTime><FrequencyChanges><FrequencyChange><Frequency dt:dt=""r8"">3020371</Frequency><Timestamp dt:dt=""r8"">598641600637</Timestamp><Current dt:dt=""r8"">0</Current><DateUtc dt:dt=""string"">2022-05-11T20:31:51Z</DateUtc></FrequencyChange></FrequencyChanges></Clock>\n"	000_R01_VA_allProc-130-1	60.001	1.0.0.229	1	1641759171	Professional	2.0.10.356	2.0.10.356	05-11-2022	5/11/2022 8:31:51 PM	16:31:51	2.0.10.252	1	0.0	0.0	84806.0	21.0	84806.0	4000.0	-999999.0	310985.0	0.0	244804.0	0.0	Run1Proc	1	1	1	RunList	3.0	LowLargeED	8000.0	0.0	158805.0	0.0	158805.0	0.0	158805.0	0.0	C1LowLargeEDBlockProc	3.0	1.0	3.0	n/a	n/a	n/a	n/a	n/a	n/a	n/a	n/a	n/a	Run1BlockList	3.0	n/a	n/a	n/a	n/a	n/a	n/a	n/a	n/a	n/a	n/a	n/a	n/a	n/a	n/a	n/a	n/a	n/a	n/a	n/a	n/a	n/a	n/a	n/a	n/a	3.0	1.0	3.0	n/a	n/a	n/a	n/a	n/a	n/a	n/a	n/a	n/a	n/a	n/a	n/a	n/a	n/a	n/a	n/a	n/a	n/a	n/a	n/a	n/a	n/a	n/a	n/a	n/a	n/a	n/a	n/a	n/a	n/a	n/a	n/a	n/a	n/a	n/a	n/a	n/a	n/a	n/a	n/a	n/a	n/a	n/a	n/a	n/a	C1_03.jpg	500.0	0.0	149305.0	0.0	149305.0	0.0	TrialProc1	C1LowLargeEDBlockList	2500.0	0.0	146805.0	0.0	146805.0	0.0	146805.0	2500.0	d	838.0	147643.0	61.999
65	2.5	000_R01_VA_allProc	130	1	"<?xml version=""1.0""?>\n<Clock xmlns:dt=""urn:schemas-microsoft-com:datatypes""><Description dt:dt=""string"">E-Prime Primary Realtime Clock</Description><StartTime><Timestamp dt:dt=""int"">0</Timestamp><DateUtc dt:dt=""string"">2022-05-11T20:31:51Z</DateUtc></StartTime><FrequencyChanges><FrequencyChange><Frequency dt:dt=""r8"">3020371</Frequency><Timestamp dt:dt=""r8"">598641600637</Timestamp><Current dt:dt=""r8"">0</Current><DateUtc dt:dt=""string"">2022-05-11T20:31:51Z</DateUtc></FrequencyChange></FrequencyChanges></Clock>\n"	000_R01_VA_allProc-130-1	60.001	1.0.0.229	1	1641759171	Professional	2.0.10.356	2.0.10.356	05-11-2022	5/11/2022 8:31:51 PM	16:31:51	2.0.10.252	1	0.0	0.0	84806.0	21.0	84806.0	4000.0	-999999.0	310985.0	0.0	244804.0	0.0	Run1Proc	1	1	1	RunList	3.0	LowLargeED	8000.0	0.0	158805.0	0.0	158805.0	0.0	158805.0	0.0	C1LowLargeEDBlockProc	3.0	1.0	3.0	n/a	n/a	n/a	n/a	n/a	n/a	n/a	n/a	n/a	Run1BlockList	4.0	n/a	n/a	n/a	n/a	n/a	n/a	n/a	n/a	n/a	n/a	n/a	n/a	n/a	n/a	n/a	n/a	n/a	n/a	n/a	n/a	n/a	n/a	n/a	n/a	4.0	1.0	4.0	n/a	n/a	n/a	n/a	n/a	n/a	n/a	n/a	n/a	n/a	n/a	n/a	n/a	n/a	n/a	n/a	n/a	n/a	n/a	n/a	n/a	n/a	n/a	n/a	n/a	n/a	n/a	n/a	n/a	n/a	n/a	n/a	n/a	n/a	n/a	n/a	n/a	n/a	n/a	n/a	n/a	n/a	n/a	n/a	n/a	C1_04.jpg	500.0	0.0	152305.0	0.0	152305.0	0.0	TrialProc1	C1LowLargeEDBlockList	2500.0	0.0	149805.0	0.0	149805.0	0.0	149805.0	2500.0	d	1510.0	151315.0	64.999
68	2.5	000_R01_VA_allProc	130	1	"<?xml version=""1.0""?>\n<Clock xmlns:dt=""urn:schemas-microsoft-com:datatypes""><Description dt:dt=""string"">E-Prime Primary Realtime Clock</Description><StartTime><Timestamp dt:dt=""int"">0</Timestamp><DateUtc dt:dt=""string"">2022-05-11T20:31:51Z</DateUtc></StartTime><FrequencyChanges><FrequencyChange><Frequency dt:dt=""r8"">3020371</Frequency><Timestamp dt:dt=""r8"">598641600637</Timestamp><Current dt:dt=""r8"">0</Current><DateUtc dt:dt=""string"">2022-05-11T20:31:51Z</DateUtc></FrequencyChange></FrequencyChanges></Clock>\n"	000_R01_VA_allProc-130-1	60.001	1.0.0.229	1	1641759171	Professional	2.0.10.356	2.0.10.356	05-11-2022	5/11/2022 8:31:51 PM	16:31:51	2.0.10.252	1	0.0	0.0	84806.0	21.0	84806.0	4000.0	-999999.0	310985.0	0.0	244804.0	0.0	Run1Proc	1	1	1	RunList	3.0	LowLargeED	8000.0	0.0	158805.0	0.0	158805.0	0.0	158805.0	0.0	C1LowLargeEDBlockProc	3.0	1.0	3.0	n/a	n/a	n/a	n/a	n/a	n/a	n/a	n/a	n/a	Run1BlockList	5.0	n/a	n/a	n/a	n/a	n/a	n/a	n/a	n/a	n/a	n/a	n/a	n/a	n/a	n/a	n/a	n/a	n/a	n/a	n/a	n/a	n/a	n/a	n/a	n/a	5.0	1.0	5.0	n/a	n/a	n/a	n/a	n/a	n/a	n/a	n/a	n/a	n/a	n/a	n/a	n/a	n/a	n/a	n/a	n/a	n/a	n/a	n/a	n/a	n/a	n/a	n/a	n/a	n/a	n/a	n/a	n/a	n/a	n/a	n/a	n/a	n/a	n/a	n/a	n/a	n/a	n/a	n/a	n/a	n/a	n/a	n/a	n/a	C1_05.jpg	500.0	0.0	155305.0	0.0	155305.0	0.0	TrialProc1	C1LowLargeEDBlockList	2500.0	0.0	152805.0	0.0	152805.0	0.0	152805.0	2500.0	d	1270.0	154075.0	67.999
71	2.5	000_R01_VA_allProc	130	1	"<?xml version=""1.0""?>\n<Clock xmlns:dt=""urn:schemas-microsoft-com:datatypes""><Description dt:dt=""string"">E-Prime Primary Realtime Clock</Description><StartTime><Timestamp dt:dt=""int"">0</Timestamp><DateUtc dt:dt=""string"">2022-05-11T20:31:51Z</DateUtc></StartTime><FrequencyChanges><FrequencyChange><Frequency dt:dt=""r8"">3020371</Frequency><Timestamp dt:dt=""r8"">598641600637</Timestamp><Current dt:dt=""r8"">0</Current><DateUtc dt:dt=""string"">2022-05-11T20:31:51Z</DateUtc></FrequencyChange></FrequencyChanges></Clock>\n"	000_R01_VA_allProc-130-1	60.001	1.0.0.229	1	1641759171	Professional	2.0.10.356	2.0.10.356	05-11-2022	5/11/2022 8:31:51 PM	16:31:51	2.0.10.252	1	0.0	0.0	84806.0	21.0	84806.0	4000.0	-999999.0	310985.0	0.0	244804.0	0.0	Run1Proc	1	1	1	RunList	3.0	LowLargeED	8000.0	0.0	158805.0	0.0	158805.0	0.0	158805.0	0.0	C1LowLargeEDBlockProc	3.0	1.0	3.0	n/a	n/a	n/a	n/a	n/a	n/a	n/a	n/a	n/a	Run1BlockList	6.0	n/a	n/a	n/a	n/a	n/a	n/a	n/a	n/a	n/a	n/a	n/a	n/a	n/a	n/a	n/a	n/a	n/a	n/a	n/a	n/a	n/a	n/a	n/a	n/a	6.0	1.0	6.0	n/a	n/a	n/a	n/a	n/a	n/a	n/a	n/a	n/a	n/a	n/a	n/a	n/a	n/a	n/a	n/a	n/a	n/a	n/a	n/a	n/a	n/a	n/a	n/a	n/a	n/a	n/a	n/a	n/a	n/a	n/a	n/a	n/a	n/a	n/a	n/a	n/a	n/a	n/a	n/a	n/a	n/a	n/a	n/a	n/a	C1_06.jpg	500.0	0.0	158305.0	0.0	158305.0	0.0	TrialProc1	C1LowLargeEDBlockList	2500.0	0.0	155805.0	0.0	155805.0	0.0	155805.0	2500.0	d	894.0	156699.0	70.999
82	2.5	000_R01_VA_allProc	130	1	"<?xml version=""1.0""?>\n<Clock xmlns:dt=""urn:schemas-microsoft-com:datatypes""><Description dt:dt=""string"">E-Prime Primary Realtime Clock</Description><StartTime><Timestamp dt:dt=""int"">0</Timestamp><DateUtc dt:dt=""string"">2022-05-11T20:31:51Z</DateUtc></StartTime><FrequencyChanges><FrequencyChange><Frequency dt:dt=""r8"">3020371</Frequency><Timestamp dt:dt=""r8"">598641600637</Timestamp><Current dt:dt=""r8"">0</Current><DateUtc dt:dt=""string"">2022-05-11T20:31:51Z</DateUtc></FrequencyChange></FrequencyChanges></Clock>\n"	000_R01_VA_allProc-130-1	60.001	1.0.0.229	1	1641759171	Professional	2.0.10.356	2.0.10.356	05-11-2022	5/11/2022 8:31:51 PM	16:31:51	2.0.10.252	1	0.0	0.0	84806.0	21.0	84806.0	4000.0	-999999.0	310985.0	0.0	244804.0	0.0	Run1Proc	1	1	1	RunList	4.0	LowSmallED	8000.0	0.0	184805.0	0.0	184805.0	0.0	184805.0	0.0	D1LowSmallEDBlockProc	4.0	1.0	4.0	n/a	n/a	n/a	n/a	n/a	n/a	n/a	n/a	n/a	Run1BlockList	1.0	n/a	n/a	n/a	n/a	n/a	n/a	n/a	n/a	n/a	n/a	n/a	n/a	n/a	n/a	n/a	n/a	n/a	n/a	n/a	n/a	n/a	n/a	n/a	n/a	n/a	n/a	n/a	n/a	n/a	n/a	n/a	n/a	n/a	n/a	n/a	n/a	1.0	1.0	1.0	n/a	n/a	n/a	n/a	n/a	n/a	n/a	n/a	n/a	n/a	n/a	n/a	n/a	n/a	n/a	n/a	n/a	n/a	n/a	n/a	n/a	n/a	n/a	n/a	n/a	n/a	n/a	n/a	n/a	n/a	n/a	n/a	n/a	D1_01.jpg	500.0	0.0	169305.0	0.0	169305.0	0.0	TrialProc1	D1LowSmallEDBlockList	2500.0	0.0	166805.0	0.0	166805.0	0.0	166805.0	2500.0	d	750.0	167555.0	81.999
85	2.5	000_R01_VA_allProc	130	1	"<?xml version=""1.0""?>\n<Clock xmlns:dt=""urn:schemas-microsoft-com:datatypes""><Description dt:dt=""string"">E-Prime Primary Realtime Clock</Description><StartTime><Timestamp dt:dt=""int"">0</Timestamp><DateUtc dt:dt=""string"">2022-05-11T20:31:51Z</DateUtc></StartTime><FrequencyChanges><FrequencyChange><Frequency dt:dt=""r8"">3020371</Frequency><Timestamp dt:dt=""r8"">598641600637</Timestamp><Current dt:dt=""r8"">0</Current><DateUtc dt:dt=""string"">2022-05-11T20:31:51Z</DateUtc></FrequencyChange></FrequencyChanges></Clock>\n"	000_R01_VA_allProc-130-1	60.001	1.0.0.229	1	1641759171	Professional	2.0.10.356	2.0.10.356	05-11-2022	5/11/2022 8:31:51 PM	16:31:51	2.0.10.252	1	0.0	0.0	84806.0	21.0	84806.0	4000.0	-999999.0	310985.0	0.0	244804.0	0.0	Run1Proc	1	1	1	RunList	4.0	LowSmallED	8000.0	0.0	184805.0	0.0	184805.0	0.0	184805.0	0.0	D1LowSmallEDBlockProc	4.0	1.0	4.0	n/a	n/a	n/a	n/a	n/a	n/a	n/a	n/a	n/a	Run1BlockList	2.0	n/a	n/a	n/a	n/a	n/a	n/a	n/a	n/a	n/a	n/a	n/a	n/a	n/a	n/a	n/a	n/a	n/a	n/a	n/a	n/a	n/a	n/a	n/a	n/a	n/a	n/a	n/a	n/a	n/a	n/a	n/a	n/a	n/a	n/a	n/a	n/a	2.0	1.0	2.0	n/a	n/a	n/a	n/a	n/a	n/a	n/a	n/a	n/a	n/a	n/a	n/a	n/a	n/a	n/a	n/a	n/a	n/a	n/a	n/a	n/a	n/a	n/a	n/a	n/a	n/a	n/a	n/a	n/a	n/a	n/a	n/a	n/a	D1_02.jpg	500.0	0.0	172305.0	0.0	172305.0	0.0	TrialProc1	D1LowSmallEDBlockList	2500.0	0.0	169805.0	0.0	169805.0	0.0	169805.0	2500.0	d	1662.0	171467.0	84.999
88	2.5	000_R01_VA_allProc	130	1	"<?xml version=""1.0""?>\n<Clock xmlns:dt=""urn:schemas-microsoft-com:datatypes""><Description dt:dt=""string"">E-Prime Primary Realtime Clock</Description><StartTime><Timestamp dt:dt=""int"">0</Timestamp><DateUtc dt:dt=""string"">2022-05-11T20:31:51Z</DateUtc></StartTime><FrequencyChanges><FrequencyChange><Frequency dt:dt=""r8"">3020371</Frequency><Timestamp dt:dt=""r8"">598641600637</Timestamp><Current dt:dt=""r8"">0</Current><DateUtc dt:dt=""string"">2022-05-11T20:31:51Z</DateUtc></FrequencyChange></FrequencyChanges></Clock>\n"	000_R01_VA_allProc-130-1	60.001	1.0.0.229	1	1641759171	Professional	2.0.10.356	2.0.10.356	05-11-2022	5/11/2022 8:31:51 PM	16:31:51	2.0.10.252	1	0.0	0.0	84806.0	21.0	84806.0	4000.0	-999999.0	310985.0	0.0	244804.0	0.0	Run1Proc	1	1	1	RunList	4.0	LowSmallED	8000.0	0.0	184805.0	0.0	184805.0	0.0	184805.0	0.0	D1LowSmallEDBlockProc	4.0	1.0	4.0	n/a	n/a	n/a	n/a	n/a	n/a	n/a	n/a	n/a	Run1BlockList	3.0	n/a	n/a	n/a	n/a	n/a	n/a	n/a	n/a	n/a	n/a	n/a	n/a	n/a	n/a	n/a	n/a	n/a	n/a	n/a	n/a	n/a	n/a	n/a	n/a	n/a	n/a	n/a	n/a	n/a	n/a	n/a	n/a	n/a	n/a	n/a	n/a	3.0	1.0	3.0	n/a	n/a	n/a	n/a	n/a	n/a	n/a	n/a	n/a	n/a	n/a	n/a	n/a	n/a	n/a	n/a	n/a	n/a	n/a	n/a	n/a	n/a	n/a	n/a	n/a	n/a	n/a	n/a	n/a	n/a	n/a	n/a	n/a	D1_03.jpg	500.0	0.0	175305.0	0.0	175305.0	0.0	TrialProc1	D1LowSmallEDBlockList	2500.0	0.0	172805.0	0.0	172805.0	0.0	172805.0	2500.0	n/a	0.0	0.0	87.999
91	2.5	000_R01_VA_allProc	130	1	"<?xml version=""1.0""?>\n<Clock xmlns:dt=""urn:schemas-microsoft-com:datatypes""><Description dt:dt=""string"">E-Prime Primary Realtime Clock</Description><StartTime><Timestamp dt:dt=""int"">0</Timestamp><DateUtc dt:dt=""string"">2022-05-11T20:31:51Z</DateUtc></StartTime><FrequencyChanges><FrequencyChange><Frequency dt:dt=""r8"">3020371</Frequency><Timestamp dt:dt=""r8"">598641600637</Timestamp><Current dt:dt=""r8"">0</Current><DateUtc dt:dt=""string"">2022-05-11T20:31:51Z</DateUtc></FrequencyChange></FrequencyChanges></Clock>\n"	000_R01_VA_allProc-130-1	60.001	1.0.0.229	1	1641759171	Professional	2.0.10.356	2.0.10.356	05-11-2022	5/11/2022 8:31:51 PM	16:31:51	2.0.10.252	1	0.0	0.0	84806.0	21.0	84806.0	4000.0	-999999.0	310985.0	0.0	244804.0	0.0	Run1Proc	1	1	1	RunList	4.0	LowSmallED	8000.0	0.0	184805.0	0.0	184805.0	0.0	184805.0	0.0	D1LowSmallEDBlockProc	4.0	1.0	4.0	n/a	n/a	n/a	n/a	n/a	n/a	n/a	n/a	n/a	Run1BlockList	4.0	n/a	n/a	n/a	n/a	n/a	n/a	n/a	n/a	n/a	n/a	n/a	n/a	n/a	n/a	n/a	n/a	n/a	n/a	n/a	n/a	n/a	n/a	n/a	n/a	n/a	n/a	n/a	n/a	n/a	n/a	n/a	n/a	n/a	n/a	n/a	n/a	4.0	1.0	4.0	n/a	n/a	n/a	n/a	n/a	n/a	n/a	n/a	n/a	n/a	n/a	n/a	n/a	n/a	n/a	n/a	n/a	n/a	n/a	n/a	n/a	n/a	n/a	n/a	n/a	n/a	n/a	n/a	n/a	n/a	n/a	n/a	n/a	D1_04.jpg	500.0	0.0	178305.0	0.0	178305.0	0.0	TrialProc1	D1LowSmallEDBlockList	2500.0	0.0	175805.0	0.0	175805.0	0.0	175805.0	2500.0	n/a	0.0	0.0	90.999
94	2.5	000_R01_VA_allProc	130	1	"<?xml version=""1.0""?>\n<Clock xmlns:dt=""urn:schemas-microsoft-com:datatypes""><Description dt:dt=""string"">E-Prime Primary Realtime Clock</Description><StartTime><Timestamp dt:dt=""int"">0</Timestamp><DateUtc dt:dt=""string"">2022-05-11T20:31:51Z</DateUtc></StartTime><FrequencyChanges><FrequencyChange><Frequency dt:dt=""r8"">3020371</Frequency><Timestamp dt:dt=""r8"">598641600637</Timestamp><Current dt:dt=""r8"">0</Current><DateUtc dt:dt=""string"">2022-05-11T20:31:51Z</DateUtc></FrequencyChange></FrequencyChanges></Clock>\n"	000_R01_VA_allProc-130-1	60.001	1.0.0.229	1	1641759171	Professional	2.0.10.356	2.0.10.356	05-11-2022	5/11/2022 8:31:51 PM	16:31:51	2.0.10.252	1	0.0	0.0	84806.0	21.0	84806.0	4000.0	-999999.0	310985.0	0.0	244804.0	0.0	Run1Proc	1	1	1	RunList	4.0	LowSmallED	8000.0	0.0	184805.0	0.0	184805.0	0.0	184805.0	0.0	D1LowSmallEDBlockProc	4.0	1.0	4.0	n/a	n/a	n/a	n/a	n/a	n/a	n/a	n/a	n/a	Run1BlockList	5.0	n/a	n/a	n/a	n/a	n/a	n/a	n/a	n/a	n/a	n/a	n/a	n/a	n/a	n/a	n/a	n/a	n/a	n/a	n/a	n/a	n/a	n/a	n/a	n/a	n/a	n/a	n/a	n/a	n/a	n/a	n/a	n/a	n/a	n/a	n/a	n/a	5.0	1.0	5.0	n/a	n/a	n/a	n/a	n/a	n/a	n/a	n/a	n/a	n/a	n/a	n/a	n/a	n/a	n/a	n/a	n/a	n/a	n/a	n/a	n/a	n/a	n/a	n/a	n/a	n/a	n/a	n/a	n/a	n/a	n/a	n/a	n/a	D1_05.jpg	500.0	0.0	181305.0	0.0	181305.0	0.0	TrialProc1	D1LowSmallEDBlockList	2500.0	0.0	178805.0	0.0	178805.0	0.0	178805.0	2500.0	d	1622.0	180427.0	93.999
97	2.5	000_R01_VA_allProc	130	1	"<?xml version=""1.0""?>\n<Clock xmlns:dt=""urn:schemas-microsoft-com:datatypes""><Description dt:dt=""string"">E-Prime Primary Realtime Clock</Description><StartTime><Timestamp dt:dt=""int"">0</Timestamp><DateUtc dt:dt=""string"">2022-05-11T20:31:51Z</DateUtc></StartTime><FrequencyChanges><FrequencyChange><Frequency dt:dt=""r8"">3020371</Frequency><Timestamp dt:dt=""r8"">598641600637</Timestamp><Current dt:dt=""r8"">0</Current><DateUtc dt:dt=""string"">2022-05-11T20:31:51Z</DateUtc></FrequencyChange></FrequencyChanges></Clock>\n"	000_R01_VA_allProc-130-1	60.001	1.0.0.229	1	1641759171	Professional	2.0.10.356	2.0.10.356	05-11-2022	5/11/2022 8:31:51 PM	16:31:51	2.0.10.252	1	0.0	0.0	84806.0	21.0	84806.0	4000.0	-999999.0	310985.0	0.0	244804.0	0.0	Run1Proc	1	1	1	RunList	4.0	LowSmallED	8000.0	0.0	184805.0	0.0	184805.0	0.0	184805.0	0.0	D1LowSmallEDBlockProc	4.0	1.0	4.0	n/a	n/a	n/a	n/a	n/a	n/a	n/a	n/a	n/a	Run1BlockList	6.0	n/a	n/a	n/a	n/a	n/a	n/a	n/a	n/a	n/a	n/a	n/a	n/a	n/a	n/a	n/a	n/a	n/a	n/a	n/a	n/a	n/a	n/a	n/a	n/a	n/a	n/a	n/a	n/a	n/a	n/a	n/a	n/a	n/a	n/a	n/a	n/a	6.0	1.0	6.0	n/a	n/a	n/a	n/a	n/a	n/a	n/a	n/a	n/a	n/a	n/a	n/a	n/a	n/a	n/a	n/a	n/a	n/a	n/a	n/a	n/a	n/a	n/a	n/a	n/a	n/a	n/a	n/a	n/a	n/a	n/a	n/a	n/a	D1_06.jpg	500.0	0.0	184305.0	0.0	184305.0	0.0	TrialProc1	D1LowSmallEDBlockList	2500.0	0.0	181805.0	0.0	181805.0	0.0	181805.0	2500.0	d	966.0	182771.0	96.999
108	2.5	000_R01_VA_allProc	130	1	"<?xml version=""1.0""?>\n<Clock xmlns:dt=""urn:schemas-microsoft-com:datatypes""><Description dt:dt=""string"">E-Prime Primary Realtime Clock</Description><StartTime><Timestamp dt:dt=""int"">0</Timestamp><DateUtc dt:dt=""string"">2022-05-11T20:31:51Z</DateUtc></StartTime><FrequencyChanges><FrequencyChange><Frequency dt:dt=""r8"">3020371</Frequency><Timestamp dt:dt=""r8"">598641600637</Timestamp><Current dt:dt=""r8"">0</Current><DateUtc dt:dt=""string"">2022-05-11T20:31:51Z</DateUtc></FrequencyChange></FrequencyChanges></Clock>\n"	000_R01_VA_allProc-130-1	60.001	1.0.0.229	1	1641759171	Professional	2.0.10.356	2.0.10.356	05-11-2022	5/11/2022 8:31:51 PM	16:31:51	2.0.10.252	1	0.0	0.0	84806.0	21.0	84806.0	4000.0	-999999.0	310985.0	0.0	244804.0	0.0	Run1Proc	1	1	1	RunList	5.0	OfficeLarge	8000.0	1.0	210805.0	1.0	210805.0	0.0	210804.0	0.0	E1OfficeLargeBlockProc	5.0	1.0	5.0	n/a	n/a	n/a	n/a	n/a	n/a	n/a	n/a	n/a	Run1BlockList	1.0	n/a	n/a	n/a	n/a	n/a	n/a	n/a	n/a	n/a	n/a	n/a	n/a	n/a	n/a	n/a	n/a	n/a	n/a	n/a	n/a	n/a	n/a	n/a	n/a	n/a	n/a	n/a	n/a	n/a	n/a	n/a	n/a	n/a	n/a	n/a	n/a	n/a	n/a	n/a	n/a	n/a	n/a	n/a	n/a	n/a	n/a	n/a	n/a	1.0	1.0	1.0	n/a	n/a	n/a	n/a	n/a	n/a	n/a	n/a	n/a	n/a	n/a	n/a	n/a	n/a	n/a	n/a	n/a	n/a	n/a	n/a	n/a	E1_01.jpg	500.0	0.0	195305.0	0.0	195305.0	0.0	TrialProc1	E1OfficeLargeBlockList	2500.0	0.0	192805.0	0.0	192805.0	0.0	192805.0	2500.0	d	990.0	193795.0	107.999
111	2.5	000_R01_VA_allProc	130	1	"<?xml version=""1.0""?>\n<Clock xmlns:dt=""urn:schemas-microsoft-com:datatypes""><Description dt:dt=""string"">E-Prime Primary Realtime Clock</Description><StartTime><Timestamp dt:dt=""int"">0</Timestamp><DateUtc dt:dt=""string"">2022-05-11T20:31:51Z</DateUtc></StartTime><FrequencyChanges><FrequencyChange><Frequency dt:dt=""r8"">3020371</Frequency><Timestamp dt:dt=""r8"">598641600637</Timestamp><Current dt:dt=""r8"">0</Current><DateUtc dt:dt=""string"">2022-05-11T20:31:51Z</DateUtc></FrequencyChange></FrequencyChanges></Clock>\n"	000_R01_VA_allProc-130-1	60.001	1.0.0.229	1	1641759171	Professional	2.0.10.356	2.0.10.356	05-11-2022	5/11/2022 8:31:51 PM	16:31:51	2.0.10.252	1	0.0	0.0	84806.0	21.0	84806.0	4000.0	-999999.0	310985.0	0.0	244804.0	0.0	Run1Proc	1	1	1	RunList	5.0	OfficeLarge	8000.0	1.0	210805.0	1.0	210805.0	0.0	210804.0	0.0	E1OfficeLargeBlockProc	5.0	1.0	5.0	n/a	n/a	n/a	n/a	n/a	n/a	n/a	n/a	n/a	Run1BlockList	2.0	n/a	n/a	n/a	n/a	n/a	n/a	n/a	n/a	n/a	n/a	n/a	n/a	n/a	n/a	n/a	n/a	n/a	n/a	n/a	n/a	n/a	n/a	n/a	n/a	n/a	n/a	n/a	n/a	n/a	n/a	n/a	n/a	n/a	n/a	n/a	n/a	n/a	n/a	n/a	n/a	n/a	n/a	n/a	n/a	n/a	n/a	n/a	n/a	2.0	1.0	2.0	n/a	n/a	n/a	n/a	n/a	n/a	n/a	n/a	n/a	n/a	n/a	n/a	n/a	n/a	n/a	n/a	n/a	n/a	n/a	n/a	n/a	E1_02.jpg	500.0	0.0	198305.0	0.0	198305.0	0.0	TrialProc1	E1OfficeLargeBlockList	2500.0	0.0	195805.0	0.0	195805.0	0.0	195805.0	2500.0	n/a	0.0	0.0	110.999
114	2.5	000_R01_VA_allProc	130	1	"<?xml version=""1.0""?>\n<Clock xmlns:dt=""urn:schemas-microsoft-com:datatypes""><Description dt:dt=""string"">E-Prime Primary Realtime Clock</Description><StartTime><Timestamp dt:dt=""int"">0</Timestamp><DateUtc dt:dt=""string"">2022-05-11T20:31:51Z</DateUtc></StartTime><FrequencyChanges><FrequencyChange><Frequency dt:dt=""r8"">3020371</Frequency><Timestamp dt:dt=""r8"">598641600637</Timestamp><Current dt:dt=""r8"">0</Current><DateUtc dt:dt=""string"">2022-05-11T20:31:51Z</DateUtc></FrequencyChange></FrequencyChanges></Clock>\n"	000_R01_VA_allProc-130-1	60.001	1.0.0.229	1	1641759171	Professional	2.0.10.356	2.0.10.356	05-11-2022	5/11/2022 8:31:51 PM	16:31:51	2.0.10.252	1	0.0	0.0	84806.0	21.0	84806.0	4000.0	-999999.0	310985.0	0.0	244804.0	0.0	Run1Proc	1	1	1	RunList	5.0	OfficeLarge	8000.0	1.0	210805.0	1.0	210805.0	0.0	210804.0	0.0	E1OfficeLargeBlockProc	5.0	1.0	5.0	n/a	n/a	n/a	n/a	n/a	n/a	n/a	n/a	n/a	Run1BlockList	3.0	n/a	n/a	n/a	n/a	n/a	n/a	n/a	n/a	n/a	n/a	n/a	n/a	n/a	n/a	n/a	n/a	n/a	n/a	n/a	n/a	n/a	n/a	n/a	n/a	n/a	n/a	n/a	n/a	n/a	n/a	n/a	n/a	n/a	n/a	n/a	n/a	n/a	n/a	n/a	n/a	n/a	n/a	n/a	n/a	n/a	n/a	n/a	n/a	3.0	1.0	3.0	n/a	n/a	n/a	n/a	n/a	n/a	n/a	n/a	n/a	n/a	n/a	n/a	n/a	n/a	n/a	n/a	n/a	n/a	n/a	n/a	n/a	E1_03.jpg	500.0	0.0	201305.0	0.0	201305.0	0.0	TrialProc1	E1OfficeLargeBlockList	2500.0	0.0	198805.0	0.0	198805.0	0.0	198805.0	2500.0	d	70.0	198875.0	113.999
117	2.5	000_R01_VA_allProc	130	1	"<?xml version=""1.0""?>\n<Clock xmlns:dt=""urn:schemas-microsoft-com:datatypes""><Description dt:dt=""string"">E-Prime Primary Realtime Clock</Description><StartTime><Timestamp dt:dt=""int"">0</Timestamp><DateUtc dt:dt=""string"">2022-05-11T20:31:51Z</DateUtc></StartTime><FrequencyChanges><FrequencyChange><Frequency dt:dt=""r8"">3020371</Frequency><Timestamp dt:dt=""r8"">598641600637</Timestamp><Current dt:dt=""r8"">0</Current><DateUtc dt:dt=""string"">2022-05-11T20:31:51Z</DateUtc></FrequencyChange></FrequencyChanges></Clock>\n"	000_R01_VA_allProc-130-1	60.001	1.0.0.229	1	1641759171	Professional	2.0.10.356	2.0.10.356	05-11-2022	5/11/2022 8:31:51 PM	16:31:51	2.0.10.252	1	0.0	0.0	84806.0	21.0	84806.0	4000.0	-999999.0	310985.0	0.0	244804.0	0.0	Run1Proc	1	1	1	RunList	5.0	OfficeLarge	8000.0	1.0	210805.0	1.0	210805.0	0.0	210804.0	0.0	E1OfficeLargeBlockProc	5.0	1.0	5.0	n/a	n/a	n/a	n/a	n/a	n/a	n/a	n/a	n/a	Run1BlockList	4.0	n/a	n/a	n/a	n/a	n/a	n/a	n/a	n/a	n/a	n/a	n/a	n/a	n/a	n/a	n/a	n/a	n/a	n/a	n/a	n/a	n/a	n/a	n/a	n/a	n/a	n/a	n/a	n/a	n/a	n/a	n/a	n/a	n/a	n/a	n/a	n/a	n/a	n/a	n/a	n/a	n/a	n/a	n/a	n/a	n/a	n/a	n/a	n/a	4.0	1.0	4.0	n/a	n/a	n/a	n/a	n/a	n/a	n/a	n/a	n/a	n/a	n/a	n/a	n/a	n/a	n/a	n/a	n/a	n/a	n/a	n/a	n/a	E1_04.jpg	500.0	1.0	204305.0	-1.0	204304.0	0.0	TrialProc1	E1OfficeLargeBlockList	2500.0	0.0	201805.0	0.0	201805.0	0.0	201805.0	2499.0	d	598.0	202403.0	116.999
120	2.5	000_R01_VA_allProc	130	1	"<?xml version=""1.0""?>\n<Clock xmlns:dt=""urn:schemas-microsoft-com:datatypes""><Description dt:dt=""string"">E-Prime Primary Realtime Clock</Description><StartTime><Timestamp dt:dt=""int"">0</Timestamp><DateUtc dt:dt=""string"">2022-05-11T20:31:51Z</DateUtc></StartTime><FrequencyChanges><FrequencyChange><Frequency dt:dt=""r8"">3020371</Frequency><Timestamp dt:dt=""r8"">598641600637</Timestamp><Current dt:dt=""r8"">0</Current><DateUtc dt:dt=""string"">2022-05-11T20:31:51Z</DateUtc></FrequencyChange></FrequencyChanges></Clock>\n"	000_R01_VA_allProc-130-1	60.001	1.0.0.229	1	1641759171	Professional	2.0.10.356	2.0.10.356	05-11-2022	5/11/2022 8:31:51 PM	16:31:51	2.0.10.252	1	0.0	0.0	84806.0	21.0	84806.0	4000.0	-999999.0	310985.0	0.0	244804.0	0.0	Run1Proc	1	1	1	RunList	5.0	OfficeLarge	8000.0	1.0	210805.0	1.0	210805.0	0.0	210804.0	0.0	E1OfficeLargeBlockProc	5.0	1.0	5.0	n/a	n/a	n/a	n/a	n/a	n/a	n/a	n/a	n/a	Run1BlockList	5.0	n/a	n/a	n/a	n/a	n/a	n/a	n/a	n/a	n/a	n/a	n/a	n/a	n/a	n/a	n/a	n/a	n/a	n/a	n/a	n/a	n/a	n/a	n/a	n/a	n/a	n/a	n/a	n/a	n/a	n/a	n/a	n/a	n/a	n/a	n/a	n/a	n/a	n/a	n/a	n/a	n/a	n/a	n/a	n/a	n/a	n/a	n/a	n/a	5.0	1.0	5.0	n/a	n/a	n/a	n/a	n/a	n/a	n/a	n/a	n/a	n/a	n/a	n/a	n/a	n/a	n/a	n/a	n/a	n/a	n/a	n/a	n/a	E1_05.jpg	500.0	1.0	207305.0	0.0	207304.0	0.0	TrialProc1	E1OfficeLargeBlockList	2500.0	1.0	204805.0	1.0	204805.0	0.0	204804.0	2500.0	d	439.0	205243.0	119.998
123	2.5	000_R01_VA_allProc	130	1	"<?xml version=""1.0""?>\n<Clock xmlns:dt=""urn:schemas-microsoft-com:datatypes""><Description dt:dt=""string"">E-Prime Primary Realtime Clock</Description><StartTime><Timestamp dt:dt=""int"">0</Timestamp><DateUtc dt:dt=""string"">2022-05-11T20:31:51Z</DateUtc></StartTime><FrequencyChanges><FrequencyChange><Frequency dt:dt=""r8"">3020371</Frequency><Timestamp dt:dt=""r8"">598641600637</Timestamp><Current dt:dt=""r8"">0</Current><DateUtc dt:dt=""string"">2022-05-11T20:31:51Z</DateUtc></FrequencyChange></FrequencyChanges></Clock>\n"	000_R01_VA_allProc-130-1	60.001	1.0.0.229	1	1641759171	Professional	2.0.10.356	2.0.10.356	05-11-2022	5/11/2022 8:31:51 PM	16:31:51	2.0.10.252	1	0.0	0.0	84806.0	21.0	84806.0	4000.0	-999999.0	310985.0	0.0	244804.0	0.0	Run1Proc	1	1	1	RunList	5.0	OfficeLarge	8000.0	1.0	210805.0	1.0	210805.0	0.0	210804.0	0.0	E1OfficeLargeBlockProc	5.0	1.0	5.0	n/a	n/a	n/a	n/a	n/a	n/a	n/a	n/a	n/a	Run1BlockList	6.0	n/a	n/a	n/a	n/a	n/a	n/a	n/a	n/a	n/a	n/a	n/a	n/a	n/a	n/a	n/a	n/a	n/a	n/a	n/a	n/a	n/a	n/a	n/a	n/a	n/a	n/a	n/a	n/a	n/a	n/a	n/a	n/a	n/a	n/a	n/a	n/a	n/a	n/a	n/a	n/a	n/a	n/a	n/a	n/a	n/a	n/a	n/a	n/a	6.0	1.0	6.0	n/a	n/a	n/a	n/a	n/a	n/a	n/a	n/a	n/a	n/a	n/a	n/a	n/a	n/a	n/a	n/a	n/a	n/a	n/a	n/a	n/a	E1_06.jpg	500.0	1.0	210305.0	0.0	210304.0	0.0	TrialProc1	E1OfficeLargeBlockList	2500.0	1.0	207805.0	1.0	207805.0	0.0	207804.0	2500.0	d	743.0	208547.0	122.998
134	2.5	000_R01_VA_allProc	130	1	"<?xml version=""1.0""?>\n<Clock xmlns:dt=""urn:schemas-microsoft-com:datatypes""><Description dt:dt=""string"">E-Prime Primary Realtime Clock</Description><StartTime><Timestamp dt:dt=""int"">0</Timestamp><DateUtc dt:dt=""string"">2022-05-11T20:31:51Z</DateUtc></StartTime><FrequencyChanges><FrequencyChange><Frequency dt:dt=""r8"">3020371</Frequency><Timestamp dt:dt=""r8"">598641600637</Timestamp><Current dt:dt=""r8"">0</Current><DateUtc dt:dt=""string"">2022-05-11T20:31:51Z</DateUtc></FrequencyChange></FrequencyChanges></Clock>\n"	000_R01_VA_allProc-130-1	60.001	1.0.0.229	1	1641759171	Professional	2.0.10.356	2.0.10.356	05-11-2022	5/11/2022 8:31:51 PM	16:31:51	2.0.10.252	1	0.0	0.0	84806.0	21.0	84806.0	4000.0	-999999.0	310985.0	0.0	244804.0	0.0	Run1Proc	1	1	1	RunList	6.0	HighSmallED	8000.0	0.0	236804.0	0.0	236804.0	0.0	236804.0	0.0	B1HighSmallEDBlockProc	6.0	1.0	6.0	n/a	n/a	n/a	n/a	n/a	n/a	n/a	n/a	n/a	Run1BlockList	1.0	n/a	n/a	n/a	n/a	n/a	n/a	n/a	n/a	n/a	n/a	n/a	n/a	1.0	1.0	1.0	n/a	n/a	n/a	n/a	n/a	n/a	n/a	n/a	n/a	n/a	n/a	n/a	n/a	n/a	n/a	n/a	n/a	n/a	n/a	n/a	n/a	n/a	n/a	n/a	n/a	n/a	n/a	n/a	n/a	n/a	n/a	n/a	n/a	n/a	n/a	n/a	n/a	n/a	n/a	n/a	n/a	n/a	n/a	n/a	n/a	n/a	n/a	n/a	n/a	n/a	n/a	n/a	n/a	n/a	n/a	n/a	n/a	B1_01.jpg	500.0	0.0	221304.0	0.0	221304.0	0.0	TrialProc1	B1HighSmallEDBlockList	2500.0	0.0	218804.0	0.0	218804.0	0.0	218804.0	2500.0	d	799.0	219603.0	133.998
137	2.5	000_R01_VA_allProc	130	1	"<?xml version=""1.0""?>\n<Clock xmlns:dt=""urn:schemas-microsoft-com:datatypes""><Description dt:dt=""string"">E-Prime Primary Realtime Clock</Description><StartTime><Timestamp dt:dt=""int"">0</Timestamp><DateUtc dt:dt=""string"">2022-05-11T20:31:51Z</DateUtc></StartTime><FrequencyChanges><FrequencyChange><Frequency dt:dt=""r8"">3020371</Frequency><Timestamp dt:dt=""r8"">598641600637</Timestamp><Current dt:dt=""r8"">0</Current><DateUtc dt:dt=""string"">2022-05-11T20:31:51Z</DateUtc></FrequencyChange></FrequencyChanges></Clock>\n"	000_R01_VA_allProc-130-1	60.001	1.0.0.229	1	1641759171	Professional	2.0.10.356	2.0.10.356	05-11-2022	5/11/2022 8:31:51 PM	16:31:51	2.0.10.252	1	0.0	0.0	84806.0	21.0	84806.0	4000.0	-999999.0	310985.0	0.0	244804.0	0.0	Run1Proc	1	1	1	RunList	6.0	HighSmallED	8000.0	0.0	236804.0	0.0	236804.0	0.0	236804.0	0.0	B1HighSmallEDBlockProc	6.0	1.0	6.0	n/a	n/a	n/a	n/a	n/a	n/a	n/a	n/a	n/a	Run1BlockList	2.0	n/a	n/a	n/a	n/a	n/a	n/a	n/a	n/a	n/a	n/a	n/a	n/a	2.0	1.0	2.0	n/a	n/a	n/a	n/a	n/a	n/a	n/a	n/a	n/a	n/a	n/a	n/a	n/a	n/a	n/a	n/a	n/a	n/a	n/a	n/a	n/a	n/a	n/a	n/a	n/a	n/a	n/a	n/a	n/a	n/a	n/a	n/a	n/a	n/a	n/a	n/a	n/a	n/a	n/a	n/a	n/a	n/a	n/a	n/a	n/a	n/a	n/a	n/a	n/a	n/a	n/a	n/a	n/a	n/a	n/a	n/a	n/a	B1_02.jpg	500.0	0.0	224304.0	0.0	224304.0	0.0	TrialProc1	B1HighSmallEDBlockList	2500.0	0.0	221804.0	0.0	221804.0	0.0	221804.0	2500.0	d	1294.0	223098.0	136.998
140	2.5	000_R01_VA_allProc	130	1	"<?xml version=""1.0""?>\n<Clock xmlns:dt=""urn:schemas-microsoft-com:datatypes""><Description dt:dt=""string"">E-Prime Primary Realtime Clock</Description><StartTime><Timestamp dt:dt=""int"">0</Timestamp><DateUtc dt:dt=""string"">2022-05-11T20:31:51Z</DateUtc></StartTime><FrequencyChanges><FrequencyChange><Frequency dt:dt=""r8"">3020371</Frequency><Timestamp dt:dt=""r8"">598641600637</Timestamp><Current dt:dt=""r8"">0</Current><DateUtc dt:dt=""string"">2022-05-11T20:31:51Z</DateUtc></FrequencyChange></FrequencyChanges></Clock>\n"	000_R01_VA_allProc-130-1	60.001	1.0.0.229	1	1641759171	Professional	2.0.10.356	2.0.10.356	05-11-2022	5/11/2022 8:31:51 PM	16:31:51	2.0.10.252	1	0.0	0.0	84806.0	21.0	84806.0	4000.0	-999999.0	310985.0	0.0	244804.0	0.0	Run1Proc	1	1	1	RunList	6.0	HighSmallED	8000.0	0.0	236804.0	0.0	236804.0	0.0	236804.0	0.0	B1HighSmallEDBlockProc	6.0	1.0	6.0	n/a	n/a	n/a	n/a	n/a	n/a	n/a	n/a	n/a	Run1BlockList	3.0	n/a	n/a	n/a	n/a	n/a	n/a	n/a	n/a	n/a	n/a	n/a	n/a	3.0	1.0	3.0	n/a	n/a	n/a	n/a	n/a	n/a	n/a	n/a	n/a	n/a	n/a	n/a	n/a	n/a	n/a	n/a	n/a	n/a	n/a	n/a	n/a	n/a	n/a	n/a	n/a	n/a	n/a	n/a	n/a	n/a	n/a	n/a	n/a	n/a	n/a	n/a	n/a	n/a	n/a	n/a	n/a	n/a	n/a	n/a	n/a	n/a	n/a	n/a	n/a	n/a	n/a	n/a	n/a	n/a	n/a	n/a	n/a	B1_03.jpg	500.0	0.0	227304.0	0.0	227304.0	0.0	TrialProc1	B1HighSmallEDBlockList	2500.0	0.0	224804.0	0.0	224804.0	0.0	224804.0	2500.0	d	1022.0	225826.0	139.998
143	2.5	000_R01_VA_allProc	130	1	"<?xml version=""1.0""?>\n<Clock xmlns:dt=""urn:schemas-microsoft-com:datatypes""><Description dt:dt=""string"">E-Prime Primary Realtime Clock</Description><StartTime><Timestamp dt:dt=""int"">0</Timestamp><DateUtc dt:dt=""string"">2022-05-11T20:31:51Z</DateUtc></StartTime><FrequencyChanges><FrequencyChange><Frequency dt:dt=""r8"">3020371</Frequency><Timestamp dt:dt=""r8"">598641600637</Timestamp><Current dt:dt=""r8"">0</Current><DateUtc dt:dt=""string"">2022-05-11T20:31:51Z</DateUtc></FrequencyChange></FrequencyChanges></Clock>\n"	000_R01_VA_allProc-130-1	60.001	1.0.0.229	1	1641759171	Professional	2.0.10.356	2.0.10.356	05-11-2022	5/11/2022 8:31:51 PM	16:31:51	2.0.10.252	1	0.0	0.0	84806.0	21.0	84806.0	4000.0	-999999.0	310985.0	0.0	244804.0	0.0	Run1Proc	1	1	1	RunList	6.0	HighSmallED	8000.0	0.0	236804.0	0.0	236804.0	0.0	236804.0	0.0	B1HighSmallEDBlockProc	6.0	1.0	6.0	n/a	n/a	n/a	n/a	n/a	n/a	n/a	n/a	n/a	Run1BlockList	4.0	n/a	n/a	n/a	n/a	n/a	n/a	n/a	n/a	n/a	n/a	n/a	n/a	4.0	1.0	4.0	n/a	n/a	n/a	n/a	n/a	n/a	n/a	n/a	n/a	n/a	n/a	n/a	n/a	n/a	n/a	n/a	n/a	n/a	n/a	n/a	n/a	n/a	n/a	n/a	n/a	n/a	n/a	n/a	n/a	n/a	n/a	n/a	n/a	n/a	n/a	n/a	n/a	n/a	n/a	n/a	n/a	n/a	n/a	n/a	n/a	n/a	n/a	n/a	n/a	n/a	n/a	n/a	n/a	n/a	n/a	n/a	n/a	B1_04.jpg	500.0	0.0	230304.0	0.0	230304.0	0.0	TrialProc1	B1HighSmallEDBlockList	2500.0	0.0	227804.0	0.0	227804.0	0.0	227804.0	2500.0	d	918.0	228722.0	142.998
146	2.5	000_R01_VA_allProc	130	1	"<?xml version=""1.0""?>\n<Clock xmlns:dt=""urn:schemas-microsoft-com:datatypes""><Description dt:dt=""string"">E-Prime Primary Realtime Clock</Description><StartTime><Timestamp dt:dt=""int"">0</Timestamp><DateUtc dt:dt=""string"">2022-05-11T20:31:51Z</DateUtc></StartTime><FrequencyChanges><FrequencyChange><Frequency dt:dt=""r8"">3020371</Frequency><Timestamp dt:dt=""r8"">598641600637</Timestamp><Current dt:dt=""r8"">0</Current><DateUtc dt:dt=""string"">2022-05-11T20:31:51Z</DateUtc></FrequencyChange></FrequencyChanges></Clock>\n"	000_R01_VA_allProc-130-1	60.001	1.0.0.229	1	1641759171	Professional	2.0.10.356	2.0.10.356	05-11-2022	5/11/2022 8:31:51 PM	16:31:51	2.0.10.252	1	0.0	0.0	84806.0	21.0	84806.0	4000.0	-999999.0	310985.0	0.0	244804.0	0.0	Run1Proc	1	1	1	RunList	6.0	HighSmallED	8000.0	0.0	236804.0	0.0	236804.0	0.0	236804.0	0.0	B1HighSmallEDBlockProc	6.0	1.0	6.0	n/a	n/a	n/a	n/a	n/a	n/a	n/a	n/a	n/a	Run1BlockList	5.0	n/a	n/a	n/a	n/a	n/a	n/a	n/a	n/a	n/a	n/a	n/a	n/a	5.0	1.0	5.0	n/a	n/a	n/a	n/a	n/a	n/a	n/a	n/a	n/a	n/a	n/a	n/a	n/a	n/a	n/a	n/a	n/a	n/a	n/a	n/a	n/a	n/a	n/a	n/a	n/a	n/a	n/a	n/a	n/a	n/a	n/a	n/a	n/a	n/a	n/a	n/a	n/a	n/a	n/a	n/a	n/a	n/a	n/a	n/a	n/a	n/a	n/a	n/a	n/a	n/a	n/a	n/a	n/a	n/a	n/a	n/a	n/a	B1_05.jpg	500.0	0.0	233304.0	0.0	233304.0	0.0	TrialProc1	B1HighSmallEDBlockList	2500.0	0.0	230804.0	0.0	230804.0	0.0	230804.0	2500.0	d	726.0	231530.0	145.998
149	2.5	000_R01_VA_allProc	130	1	"<?xml version=""1.0""?>\n<Clock xmlns:dt=""urn:schemas-microsoft-com:datatypes""><Description dt:dt=""string"">E-Prime Primary Realtime Clock</Description><StartTime><Timestamp dt:dt=""int"">0</Timestamp><DateUtc dt:dt=""string"">2022-05-11T20:31:51Z</DateUtc></StartTime><FrequencyChanges><FrequencyChange><Frequency dt:dt=""r8"">3020371</Frequency><Timestamp dt:dt=""r8"">598641600637</Timestamp><Current dt:dt=""r8"">0</Current><DateUtc dt:dt=""string"">2022-05-11T20:31:51Z</DateUtc></FrequencyChange></FrequencyChanges></Clock>\n"	000_R01_VA_allProc-130-1	60.001	1.0.0.229	1	1641759171	Professional	2.0.10.356	2.0.10.356	05-11-2022	5/11/2022 8:31:51 PM	16:31:51	2.0.10.252	1	0.0	0.0	84806.0	21.0	84806.0	4000.0	-999999.0	310985.0	0.0	244804.0	0.0	Run1Proc	1	1	1	RunList	6.0	HighSmallED	8000.0	0.0	236804.0	0.0	236804.0	0.0	236804.0	0.0	B1HighSmallEDBlockProc	6.0	1.0	6.0	n/a	n/a	n/a	n/a	n/a	n/a	n/a	n/a	n/a	Run1BlockList	6.0	n/a	n/a	n/a	n/a	n/a	n/a	n/a	n/a	n/a	n/a	n/a	n/a	6.0	1.0	6.0	n/a	n/a	n/a	n/a	n/a	n/a	n/a	n/a	n/a	n/a	n/a	n/a	n/a	n/a	n/a	n/a	n/a	n/a	n/a	n/a	n/a	n/a	n/a	n/a	n/a	n/a	n/a	n/a	n/a	n/a	n/a	n/a	n/a	n/a	n/a	n/a	n/a	n/a	n/a	n/a	n/a	n/a	n/a	n/a	n/a	n/a	n/a	n/a	n/a	n/a	n/a	n/a	n/a	n/a	n/a	n/a	n/a	B1_06.jpg	500.0	0.0	236304.0	0.0	236304.0	0.0	TrialProc1	B1HighSmallEDBlockList	2500.0	0.0	233804.0	0.0	233804.0	0.0	233804.0	2500.0	d	774.0	234578.0	148.998
