onset	duration	experiment_name	sub	ses	clock_information	datafile_basename	display_refreshrate	experiment_version	group	randomseed	runtime_capabilities	runtime_version	runtimeversionexpected	session_date	session_start_date_time_utc	session_time	studio_version	block	fixation2trs_durationerror	fixation2trs_offsetdelay	fixation2trs_offsettime	fixation2trs_onsetdelay	fixation2trs_onsettime	fixation2trs_onsettoonsettime	goodwork_durationerror	goodwork_finishtime	goodwork_onsetdelay	goodwork_onsettime	goodwork_onsettoonsettime	procedure_block	runlist	runlist_cycle	runlist_sample	running_block	trial	condition	interblockinterval_duration	interblockinterval_durationerror	interblockinterval_finishtime	interblockinterval_offsetdelay	interblockinterval_offsettime	interblockinterval_onsetdelay	interblockinterval_onsettime	interblockinterval_onsettoonsettime	procedure_trial	run1blocklist	run1blocklist_cycle	run1blocklist_sample	run2blocklist	run2blocklist_cycle	run2blocklist_sample	run3blocklist	run3blocklist_cycle	run3blocklist_sample	run4blocklist	run4blocklist_cycle	run4blocklist_sample	run5blocklist	run5blocklist_cycle	run5blocklist_sample	running_trial	subtrial	a1highlargeedblocklist	a1highlargeedblocklist_cycle	a1highlargeedblocklist_sample	a2highlargeedblocklist	a2highlargeedblocklist_cycle	a2highlargeedblocklist_sample	a3highlargeedblocklist	a3highlargeedblocklist_cycle	a3highlargeedblocklist_sample	a4highlargeedblocklist	a4highlargeedblocklist_cycle	a4highlargeedblocklist_sample	a5highlargeedblocklist	a5highlargeedblocklist_cycle	a5highlargeedblocklist_sample	b1highsmalledblocklist	b1highsmalledblocklist_cycle	b1highsmalledblocklist_sample	b2highsmalledblocklist	b2highsmalledblocklist_cycle	b2highsmalledblocklist_sample	b3highsmalledblocklist	b3highsmalledblocklist_cycle	b3highsmalledblocklist_sample	b4highsmalledblocklist	b4highsmalledblocklist_cycle	b4highsmalledblocklist_sample	b5highsmalledblocklist	b5highsmalledblocklist_cycle	b5highsmalledblocklist_sample	c1lowlargeedblocklist	c1lowlargeedblocklist_cycle	c1lowlargeedblocklist_sample	c2lowlargeedblocklist	c2lowlargeedblocklist_cycle	c2lowlargeedblocklist_sample	c3lowlargeedblocklist	c3lowlargeedblocklist_cycle	c3lowlargeedblocklist_sample	c4lowlargeedblocklist	c4lowlargeedblocklist_cycle	c4lowlargeedblocklist_sample	c5lowlargeedblocklist	c5lowlargeedblocklist_cycle	c5lowlargeedblocklist_sample	d1lowsmalledblocklist	d1lowsmalledblocklist_cycle	d1lowsmalledblocklist_sample	d2highlargeedblocklist	d2highlargeedblocklist_cycle	d2highlargeedblocklist_sample	d3lowsmalledblocklist	d3lowsmalledblocklist_cycle	d3lowsmalledblocklist_sample	d4lowsmalledblocklist	d4lowsmalledblocklist_cycle	d4lowsmalledblocklist_sample	d5lowsmalledblocklist	d5lowsmalledblocklist_cycle	d5lowsmalledblocklist_sample	e1officelargeblocklist	e1officelargeblocklist_cycle	e1officelargeblocklist_sample	e2officelargeblocklist	e2officelargeblocklist_cycle	e2officelargeblocklist_sample	e3officelargeblocklist	e3officelargeblocklist_cycle	e3officelargeblocklist_sample	e4officelargeblocklist	e4officelargeblocklist_cycle	e4officelargeblocklist_sample	e5officelargeblocklist	e5officelargeblocklist_cycle	e5officelargeblocklist_sample	f1officesmallblocklist	f1officesmallblocklist_cycle	f1officesmallblocklist_sample	f2officesmallblocklist	f2officesmallblocklist_cycle	f2officesmallblocklist_sample	f3officesmallblocklist	f3officesmallblocklist_cycle	f3officesmallblocklist_sample	f4officesmallblocklist	f4officesmallblocklist_cycle	f4officesmallblocklist_sample	f5officesmallblocklist	f5officesmallblocklist_cycle	f5officesmallblocklist_sample	filename	isi_duration	isi_durationerror	isi_finishtime	isi_onsetdelay	isi_onsettime	isi_onsettoonsettime	procedure_subtrial	running_subtrial	stimslide_duration	stimslide_durationerror	stimslide_finishtime	stimslide_offsetdelay	stimslide_offsettime	stimslide_onsetdelay	stimslide_onsettime	stimslide_onsettoonsettime	stimslide_resp	stimslide_rt	stimslide_rttime	onset_unrounded
4	2.5	000_R01_VB_allProc	118	1	"<?xml version=""1.0""?>\n<Clock xmlns:dt=""urn:schemas-microsoft-com:datatypes""><Description dt:dt=""string"">E-Prime Primary Realtime Clock</Description><StartTime><Timestamp dt:dt=""int"">0</Timestamp><DateUtc dt:dt=""string"">2021-08-20T20:14:17Z</DateUtc></StartTime><FrequencyChanges><FrequencyChange><Frequency dt:dt=""r8"">3020390</Frequency><Timestamp dt:dt=""r8"">7347546218939</Timestamp><Current dt:dt=""r8"">0</Current><DateUtc dt:dt=""string"">2021-08-20T20:14:17Z</DateUtc></FrequencyChange></FrequencyChanges></Clock>\n"	000_R01_VB_allProc-118-1	60.001	1.0.0.232	1	-1142253473	Professional	2.0.10.356	2.0.10.356	08-20-2021	8/20/2021 8:14:17 PM	16:14:17	2.0.10.252	5	0	0	766107	20	766107	3999	-999999	934978	0	926104	0	Run1Proc	5	1	5	RunList	1	HighLargeED	8000	0	788106	0	788106	0	788106	0	A1HighLargeEDBlockProc	1.0	1.0	1.0	n/a	n/a	n/a	n/a	n/a	n/a	n/a	n/a	n/a	n/a	n/a	n/a	Run1BlockList	1	1.0	1.0	1.0	n/a	n/a	n/a	n/a	n/a	n/a	n/a	n/a	n/a	n/a	n/a	n/a	n/a	n/a	n/a	n/a	n/a	n/a	n/a	n/a	n/a	n/a	n/a	n/a	n/a	n/a	n/a	n/a	n/a	n/a	n/a	n/a	n/a	n/a	n/a	n/a	n/a	n/a	n/a	n/a	n/a	n/a	n/a	n/a	n/a	n/a	n/a	n/a	n/a	n/a	n/a	n/a	n/a	n/a	n/a	n/a	n/a	n/a	n/a	n/a	n/a	n/a	n/a	n/a	n/a	n/a	n/a	n/a	n/a	n/a	n/a	n/a	n/a	n/a	n/a	n/a	n/a	n/a	n/a	n/a	n/a	n/a	n/a	n/a	n/a	n/a	n/a	A1_01.jpg	500	0	772607	0	772606	0	TrialProc1	A1HighLargeEDBlockList	2500	1	770107	1	770107	-1	770106	2500	d	1562	771668	4.0
7	2.5	000_R01_VB_allProc	118	1	"<?xml version=""1.0""?>\n<Clock xmlns:dt=""urn:schemas-microsoft-com:datatypes""><Description dt:dt=""string"">E-Prime Primary Realtime Clock</Description><StartTime><Timestamp dt:dt=""int"">0</Timestamp><DateUtc dt:dt=""string"">2021-08-20T20:14:17Z</DateUtc></StartTime><FrequencyChanges><FrequencyChange><Frequency dt:dt=""r8"">3020390</Frequency><Timestamp dt:dt=""r8"">7347546218939</Timestamp><Current dt:dt=""r8"">0</Current><DateUtc dt:dt=""string"">2021-08-20T20:14:17Z</DateUtc></FrequencyChange></FrequencyChanges></Clock>\n"	000_R01_VB_allProc-118-1	60.001	1.0.0.232	1	-1142253473	Professional	2.0.10.356	2.0.10.356	08-20-2021	8/20/2021 8:14:17 PM	16:14:17	2.0.10.252	5	0	0	766107	20	766107	3999	-999999	934978	0	926104	0	Run1Proc	5	1	5	RunList	1	HighLargeED	8000	0	788106	0	788106	0	788106	0	A1HighLargeEDBlockProc	1.0	1.0	1.0	n/a	n/a	n/a	n/a	n/a	n/a	n/a	n/a	n/a	n/a	n/a	n/a	Run1BlockList	2	2.0	1.0	2.0	n/a	n/a	n/a	n/a	n/a	n/a	n/a	n/a	n/a	n/a	n/a	n/a	n/a	n/a	n/a	n/a	n/a	n/a	n/a	n/a	n/a	n/a	n/a	n/a	n/a	n/a	n/a	n/a	n/a	n/a	n/a	n/a	n/a	n/a	n/a	n/a	n/a	n/a	n/a	n/a	n/a	n/a	n/a	n/a	n/a	n/a	n/a	n/a	n/a	n/a	n/a	n/a	n/a	n/a	n/a	n/a	n/a	n/a	n/a	n/a	n/a	n/a	n/a	n/a	n/a	n/a	n/a	n/a	n/a	n/a	n/a	n/a	n/a	n/a	n/a	n/a	n/a	n/a	n/a	n/a	n/a	n/a	n/a	n/a	n/a	n/a	n/a	A1_02.jpg	500	0	775606	0	775606	0	TrialProc1	A1HighLargeEDBlockList	2500	0	773106	0	773106	0	773106	2500	d	1386	774492	7.0
10	2.5	000_R01_VB_allProc	118	1	"<?xml version=""1.0""?>\n<Clock xmlns:dt=""urn:schemas-microsoft-com:datatypes""><Description dt:dt=""string"">E-Prime Primary Realtime Clock</Description><StartTime><Timestamp dt:dt=""int"">0</Timestamp><DateUtc dt:dt=""string"">2021-08-20T20:14:17Z</DateUtc></StartTime><FrequencyChanges><FrequencyChange><Frequency dt:dt=""r8"">3020390</Frequency><Timestamp dt:dt=""r8"">7347546218939</Timestamp><Current dt:dt=""r8"">0</Current><DateUtc dt:dt=""string"">2021-08-20T20:14:17Z</DateUtc></FrequencyChange></FrequencyChanges></Clock>\n"	000_R01_VB_allProc-118-1	60.001	1.0.0.232	1	-1142253473	Professional	2.0.10.356	2.0.10.356	08-20-2021	8/20/2021 8:14:17 PM	16:14:17	2.0.10.252	5	0	0	766107	20	766107	3999	-999999	934978	0	926104	0	Run1Proc	5	1	5	RunList	1	HighLargeED	8000	0	788106	0	788106	0	788106	0	A1HighLargeEDBlockProc	1.0	1.0	1.0	n/a	n/a	n/a	n/a	n/a	n/a	n/a	n/a	n/a	n/a	n/a	n/a	Run1BlockList	3	3.0	1.0	3.0	n/a	n/a	n/a	n/a	n/a	n/a	n/a	n/a	n/a	n/a	n/a	n/a	n/a	n/a	n/a	n/a	n/a	n/a	n/a	n/a	n/a	n/a	n/a	n/a	n/a	n/a	n/a	n/a	n/a	n/a	n/a	n/a	n/a	n/a	n/a	n/a	n/a	n/a	n/a	n/a	n/a	n/a	n/a	n/a	n/a	n/a	n/a	n/a	n/a	n/a	n/a	n/a	n/a	n/a	n/a	n/a	n/a	n/a	n/a	n/a	n/a	n/a	n/a	n/a	n/a	n/a	n/a	n/a	n/a	n/a	n/a	n/a	n/a	n/a	n/a	n/a	n/a	n/a	n/a	n/a	n/a	n/a	n/a	n/a	n/a	n/a	n/a	A1_03.jpg	500	0	778606	0	778606	0	TrialProc1	A1HighLargeEDBlockList	2500	0	776106	0	776106	0	776106	2500	d	1114	777220	10.0
13	2.5	000_R01_VB_allProc	118	1	"<?xml version=""1.0""?>\n<Clock xmlns:dt=""urn:schemas-microsoft-com:datatypes""><Description dt:dt=""string"">E-Prime Primary Realtime Clock</Description><StartTime><Timestamp dt:dt=""int"">0</Timestamp><DateUtc dt:dt=""string"">2021-08-20T20:14:17Z</DateUtc></StartTime><FrequencyChanges><FrequencyChange><Frequency dt:dt=""r8"">3020390</Frequency><Timestamp dt:dt=""r8"">7347546218939</Timestamp><Current dt:dt=""r8"">0</Current><DateUtc dt:dt=""string"">2021-08-20T20:14:17Z</DateUtc></FrequencyChange></FrequencyChanges></Clock>\n"	000_R01_VB_allProc-118-1	60.001	1.0.0.232	1	-1142253473	Professional	2.0.10.356	2.0.10.356	08-20-2021	8/20/2021 8:14:17 PM	16:14:17	2.0.10.252	5	0	0	766107	20	766107	3999	-999999	934978	0	926104	0	Run1Proc	5	1	5	RunList	1	HighLargeED	8000	0	788106	0	788106	0	788106	0	A1HighLargeEDBlockProc	1.0	1.0	1.0	n/a	n/a	n/a	n/a	n/a	n/a	n/a	n/a	n/a	n/a	n/a	n/a	Run1BlockList	4	4.0	1.0	4.0	n/a	n/a	n/a	n/a	n/a	n/a	n/a	n/a	n/a	n/a	n/a	n/a	n/a	n/a	n/a	n/a	n/a	n/a	n/a	n/a	n/a	n/a	n/a	n/a	n/a	n/a	n/a	n/a	n/a	n/a	n/a	n/a	n/a	n/a	n/a	n/a	n/a	n/a	n/a	n/a	n/a	n/a	n/a	n/a	n/a	n/a	n/a	n/a	n/a	n/a	n/a	n/a	n/a	n/a	n/a	n/a	n/a	n/a	n/a	n/a	n/a	n/a	n/a	n/a	n/a	n/a	n/a	n/a	n/a	n/a	n/a	n/a	n/a	n/a	n/a	n/a	n/a	n/a	n/a	n/a	n/a	n/a	n/a	n/a	n/a	n/a	n/a	A1_04.jpg	500	0	781606	0	781606	0	TrialProc1	A1HighLargeEDBlockList	2500	0	779106	0	779106	0	779106	2500	d	1050	780156	13.0
16	2.5	000_R01_VB_allProc	118	1	"<?xml version=""1.0""?>\n<Clock xmlns:dt=""urn:schemas-microsoft-com:datatypes""><Description dt:dt=""string"">E-Prime Primary Realtime Clock</Description><StartTime><Timestamp dt:dt=""int"">0</Timestamp><DateUtc dt:dt=""string"">2021-08-20T20:14:17Z</DateUtc></StartTime><FrequencyChanges><FrequencyChange><Frequency dt:dt=""r8"">3020390</Frequency><Timestamp dt:dt=""r8"">7347546218939</Timestamp><Current dt:dt=""r8"">0</Current><DateUtc dt:dt=""string"">2021-08-20T20:14:17Z</DateUtc></FrequencyChange></FrequencyChanges></Clock>\n"	000_R01_VB_allProc-118-1	60.001	1.0.0.232	1	-1142253473	Professional	2.0.10.356	2.0.10.356	08-20-2021	8/20/2021 8:14:17 PM	16:14:17	2.0.10.252	5	0	0	766107	20	766107	3999	-999999	934978	0	926104	0	Run1Proc	5	1	5	RunList	1	HighLargeED	8000	0	788106	0	788106	0	788106	0	A1HighLargeEDBlockProc	1.0	1.0	1.0	n/a	n/a	n/a	n/a	n/a	n/a	n/a	n/a	n/a	n/a	n/a	n/a	Run1BlockList	5	5.0	1.0	5.0	n/a	n/a	n/a	n/a	n/a	n/a	n/a	n/a	n/a	n/a	n/a	n/a	n/a	n/a	n/a	n/a	n/a	n/a	n/a	n/a	n/a	n/a	n/a	n/a	n/a	n/a	n/a	n/a	n/a	n/a	n/a	n/a	n/a	n/a	n/a	n/a	n/a	n/a	n/a	n/a	n/a	n/a	n/a	n/a	n/a	n/a	n/a	n/a	n/a	n/a	n/a	n/a	n/a	n/a	n/a	n/a	n/a	n/a	n/a	n/a	n/a	n/a	n/a	n/a	n/a	n/a	n/a	n/a	n/a	n/a	n/a	n/a	n/a	n/a	n/a	n/a	n/a	n/a	n/a	n/a	n/a	n/a	n/a	n/a	n/a	n/a	n/a	A1_05.jpg	500	0	784606	0	784606	0	TrialProc1	A1HighLargeEDBlockList	2500	0	782106	0	782106	0	782106	2500	c	1505	783611	16.0
19	2.5	000_R01_VB_allProc	118	1	"<?xml version=""1.0""?>\n<Clock xmlns:dt=""urn:schemas-microsoft-com:datatypes""><Description dt:dt=""string"">E-Prime Primary Realtime Clock</Description><StartTime><Timestamp dt:dt=""int"">0</Timestamp><DateUtc dt:dt=""string"">2021-08-20T20:14:17Z</DateUtc></StartTime><FrequencyChanges><FrequencyChange><Frequency dt:dt=""r8"">3020390</Frequency><Timestamp dt:dt=""r8"">7347546218939</Timestamp><Current dt:dt=""r8"">0</Current><DateUtc dt:dt=""string"">2021-08-20T20:14:17Z</DateUtc></FrequencyChange></FrequencyChanges></Clock>\n"	000_R01_VB_allProc-118-1	60.001	1.0.0.232	1	-1142253473	Professional	2.0.10.356	2.0.10.356	08-20-2021	8/20/2021 8:14:17 PM	16:14:17	2.0.10.252	5	0	0	766107	20	766107	3999	-999999	934978	0	926104	0	Run1Proc	5	1	5	RunList	1	HighLargeED	8000	0	788106	0	788106	0	788106	0	A1HighLargeEDBlockProc	1.0	1.0	1.0	n/a	n/a	n/a	n/a	n/a	n/a	n/a	n/a	n/a	n/a	n/a	n/a	Run1BlockList	6	6.0	1.0	6.0	n/a	n/a	n/a	n/a	n/a	n/a	n/a	n/a	n/a	n/a	n/a	n/a	n/a	n/a	n/a	n/a	n/a	n/a	n/a	n/a	n/a	n/a	n/a	n/a	n/a	n/a	n/a	n/a	n/a	n/a	n/a	n/a	n/a	n/a	n/a	n/a	n/a	n/a	n/a	n/a	n/a	n/a	n/a	n/a	n/a	n/a	n/a	n/a	n/a	n/a	n/a	n/a	n/a	n/a	n/a	n/a	n/a	n/a	n/a	n/a	n/a	n/a	n/a	n/a	n/a	n/a	n/a	n/a	n/a	n/a	n/a	n/a	n/a	n/a	n/a	n/a	n/a	n/a	n/a	n/a	n/a	n/a	n/a	n/a	n/a	n/a	n/a	A1_06.jpg	500	0	787606	0	787606	0	TrialProc1	A1HighLargeEDBlockList	2500	0	785106	0	785106	0	785106	2500	d	1273	786379	19.0
30	2.5	000_R01_VB_allProc	118	1	"<?xml version=""1.0""?>\n<Clock xmlns:dt=""urn:schemas-microsoft-com:datatypes""><Description dt:dt=""string"">E-Prime Primary Realtime Clock</Description><StartTime><Timestamp dt:dt=""int"">0</Timestamp><DateUtc dt:dt=""string"">2021-08-20T20:14:17Z</DateUtc></StartTime><FrequencyChanges><FrequencyChange><Frequency dt:dt=""r8"">3020390</Frequency><Timestamp dt:dt=""r8"">7347546218939</Timestamp><Current dt:dt=""r8"">0</Current><DateUtc dt:dt=""string"">2021-08-20T20:14:17Z</DateUtc></FrequencyChange></FrequencyChanges></Clock>\n"	000_R01_VB_allProc-118-1	60.001	1.0.0.232	1	-1142253473	Professional	2.0.10.356	2.0.10.356	08-20-2021	8/20/2021 8:14:17 PM	16:14:17	2.0.10.252	5	0	0	766107	20	766107	3999	-999999	934978	0	926104	0	Run1Proc	5	1	5	RunList	2	OfficeSmall	8000	0	814106	0	814106	0	814106	0	F1OfficeSmallBlockProc	2.0	1.0	2.0	n/a	n/a	n/a	n/a	n/a	n/a	n/a	n/a	n/a	n/a	n/a	n/a	Run1BlockList	1	n/a	n/a	n/a	n/a	n/a	n/a	n/a	n/a	n/a	n/a	n/a	n/a	n/a	n/a	n/a	n/a	n/a	n/a	n/a	n/a	n/a	n/a	n/a	n/a	n/a	n/a	n/a	n/a	n/a	n/a	n/a	n/a	n/a	n/a	n/a	n/a	n/a	n/a	n/a	n/a	n/a	n/a	n/a	n/a	n/a	n/a	n/a	n/a	n/a	n/a	n/a	n/a	n/a	n/a	n/a	n/a	n/a	n/a	n/a	n/a	n/a	n/a	n/a	n/a	n/a	n/a	n/a	n/a	n/a	n/a	n/a	n/a	n/a	n/a	n/a	1.0	1.0	1.0	n/a	n/a	n/a	n/a	n/a	n/a	n/a	n/a	n/a	n/a	n/a	n/a	F1_01.jpg	500	0	798606	0	798606	0	TrialProc1	F1OfficeSmallBlockList	2500	0	796106	0	796106	0	796106	2500	c	1065	797171	30.0
33	2.5	000_R01_VB_allProc	118	1	"<?xml version=""1.0""?>\n<Clock xmlns:dt=""urn:schemas-microsoft-com:datatypes""><Description dt:dt=""string"">E-Prime Primary Realtime Clock</Description><StartTime><Timestamp dt:dt=""int"">0</Timestamp><DateUtc dt:dt=""string"">2021-08-20T20:14:17Z</DateUtc></StartTime><FrequencyChanges><FrequencyChange><Frequency dt:dt=""r8"">3020390</Frequency><Timestamp dt:dt=""r8"">7347546218939</Timestamp><Current dt:dt=""r8"">0</Current><DateUtc dt:dt=""string"">2021-08-20T20:14:17Z</DateUtc></FrequencyChange></FrequencyChanges></Clock>\n"	000_R01_VB_allProc-118-1	60.001	1.0.0.232	1	-1142253473	Professional	2.0.10.356	2.0.10.356	08-20-2021	8/20/2021 8:14:17 PM	16:14:17	2.0.10.252	5	0	0	766107	20	766107	3999	-999999	934978	0	926104	0	Run1Proc	5	1	5	RunList	2	OfficeSmall	8000	0	814106	0	814106	0	814106	0	F1OfficeSmallBlockProc	2.0	1.0	2.0	n/a	n/a	n/a	n/a	n/a	n/a	n/a	n/a	n/a	n/a	n/a	n/a	Run1BlockList	2	n/a	n/a	n/a	n/a	n/a	n/a	n/a	n/a	n/a	n/a	n/a	n/a	n/a	n/a	n/a	n/a	n/a	n/a	n/a	n/a	n/a	n/a	n/a	n/a	n/a	n/a	n/a	n/a	n/a	n/a	n/a	n/a	n/a	n/a	n/a	n/a	n/a	n/a	n/a	n/a	n/a	n/a	n/a	n/a	n/a	n/a	n/a	n/a	n/a	n/a	n/a	n/a	n/a	n/a	n/a	n/a	n/a	n/a	n/a	n/a	n/a	n/a	n/a	n/a	n/a	n/a	n/a	n/a	n/a	n/a	n/a	n/a	n/a	n/a	n/a	2.0	1.0	2.0	n/a	n/a	n/a	n/a	n/a	n/a	n/a	n/a	n/a	n/a	n/a	n/a	F1_02.jpg	500	0	801606	0	801606	0	TrialProc1	F1OfficeSmallBlockList	2500	0	799106	0	799106	0	799106	2500	c	873	799979	33.0
36	2.5	000_R01_VB_allProc	118	1	"<?xml version=""1.0""?>\n<Clock xmlns:dt=""urn:schemas-microsoft-com:datatypes""><Description dt:dt=""string"">E-Prime Primary Realtime Clock</Description><StartTime><Timestamp dt:dt=""int"">0</Timestamp><DateUtc dt:dt=""string"">2021-08-20T20:14:17Z</DateUtc></StartTime><FrequencyChanges><FrequencyChange><Frequency dt:dt=""r8"">3020390</Frequency><Timestamp dt:dt=""r8"">7347546218939</Timestamp><Current dt:dt=""r8"">0</Current><DateUtc dt:dt=""string"">2021-08-20T20:14:17Z</DateUtc></FrequencyChange></FrequencyChanges></Clock>\n"	000_R01_VB_allProc-118-1	60.001	1.0.0.232	1	-1142253473	Professional	2.0.10.356	2.0.10.356	08-20-2021	8/20/2021 8:14:17 PM	16:14:17	2.0.10.252	5	0	0	766107	20	766107	3999	-999999	934978	0	926104	0	Run1Proc	5	1	5	RunList	2	OfficeSmall	8000	0	814106	0	814106	0	814106	0	F1OfficeSmallBlockProc	2.0	1.0	2.0	n/a	n/a	n/a	n/a	n/a	n/a	n/a	n/a	n/a	n/a	n/a	n/a	Run1BlockList	3	n/a	n/a	n/a	n/a	n/a	n/a	n/a	n/a	n/a	n/a	n/a	n/a	n/a	n/a	n/a	n/a	n/a	n/a	n/a	n/a	n/a	n/a	n/a	n/a	n/a	n/a	n/a	n/a	n/a	n/a	n/a	n/a	n/a	n/a	n/a	n/a	n/a	n/a	n/a	n/a	n/a	n/a	n/a	n/a	n/a	n/a	n/a	n/a	n/a	n/a	n/a	n/a	n/a	n/a	n/a	n/a	n/a	n/a	n/a	n/a	n/a	n/a	n/a	n/a	n/a	n/a	n/a	n/a	n/a	n/a	n/a	n/a	n/a	n/a	n/a	3.0	1.0	3.0	n/a	n/a	n/a	n/a	n/a	n/a	n/a	n/a	n/a	n/a	n/a	n/a	F1_03.jpg	500	0	804606	0	804606	0	TrialProc1	F1OfficeSmallBlockList	2500	0	802106	0	802106	0	802106	2500	c	769	802875	36.0
39	2.5	000_R01_VB_allProc	118	1	"<?xml version=""1.0""?>\n<Clock xmlns:dt=""urn:schemas-microsoft-com:datatypes""><Description dt:dt=""string"">E-Prime Primary Realtime Clock</Description><StartTime><Timestamp dt:dt=""int"">0</Timestamp><DateUtc dt:dt=""string"">2021-08-20T20:14:17Z</DateUtc></StartTime><FrequencyChanges><FrequencyChange><Frequency dt:dt=""r8"">3020390</Frequency><Timestamp dt:dt=""r8"">7347546218939</Timestamp><Current dt:dt=""r8"">0</Current><DateUtc dt:dt=""string"">2021-08-20T20:14:17Z</DateUtc></FrequencyChange></FrequencyChanges></Clock>\n"	000_R01_VB_allProc-118-1	60.001	1.0.0.232	1	-1142253473	Professional	2.0.10.356	2.0.10.356	08-20-2021	8/20/2021 8:14:17 PM	16:14:17	2.0.10.252	5	0	0	766107	20	766107	3999	-999999	934978	0	926104	0	Run1Proc	5	1	5	RunList	2	OfficeSmall	8000	0	814106	0	814106	0	814106	0	F1OfficeSmallBlockProc	2.0	1.0	2.0	n/a	n/a	n/a	n/a	n/a	n/a	n/a	n/a	n/a	n/a	n/a	n/a	Run1BlockList	4	n/a	n/a	n/a	n/a	n/a	n/a	n/a	n/a	n/a	n/a	n/a	n/a	n/a	n/a	n/a	n/a	n/a	n/a	n/a	n/a	n/a	n/a	n/a	n/a	n/a	n/a	n/a	n/a	n/a	n/a	n/a	n/a	n/a	n/a	n/a	n/a	n/a	n/a	n/a	n/a	n/a	n/a	n/a	n/a	n/a	n/a	n/a	n/a	n/a	n/a	n/a	n/a	n/a	n/a	n/a	n/a	n/a	n/a	n/a	n/a	n/a	n/a	n/a	n/a	n/a	n/a	n/a	n/a	n/a	n/a	n/a	n/a	n/a	n/a	n/a	4.0	1.0	4.0	n/a	n/a	n/a	n/a	n/a	n/a	n/a	n/a	n/a	n/a	n/a	n/a	F1_04.jpg	500	0	807606	0	807606	0	TrialProc1	F1OfficeSmallBlockList	2500	0	805106	0	805106	0	805106	2500	c	841	805947	39.0
42	2.5	000_R01_VB_allProc	118	1	"<?xml version=""1.0""?>\n<Clock xmlns:dt=""urn:schemas-microsoft-com:datatypes""><Description dt:dt=""string"">E-Prime Primary Realtime Clock</Description><StartTime><Timestamp dt:dt=""int"">0</Timestamp><DateUtc dt:dt=""string"">2021-08-20T20:14:17Z</DateUtc></StartTime><FrequencyChanges><FrequencyChange><Frequency dt:dt=""r8"">3020390</Frequency><Timestamp dt:dt=""r8"">7347546218939</Timestamp><Current dt:dt=""r8"">0</Current><DateUtc dt:dt=""string"">2021-08-20T20:14:17Z</DateUtc></FrequencyChange></FrequencyChanges></Clock>\n"	000_R01_VB_allProc-118-1	60.001	1.0.0.232	1	-1142253473	Professional	2.0.10.356	2.0.10.356	08-20-2021	8/20/2021 8:14:17 PM	16:14:17	2.0.10.252	5	0	0	766107	20	766107	3999	-999999	934978	0	926104	0	Run1Proc	5	1	5	RunList	2	OfficeSmall	8000	0	814106	0	814106	0	814106	0	F1OfficeSmallBlockProc	2.0	1.0	2.0	n/a	n/a	n/a	n/a	n/a	n/a	n/a	n/a	n/a	n/a	n/a	n/a	Run1BlockList	5	n/a	n/a	n/a	n/a	n/a	n/a	n/a	n/a	n/a	n/a	n/a	n/a	n/a	n/a	n/a	n/a	n/a	n/a	n/a	n/a	n/a	n/a	n/a	n/a	n/a	n/a	n/a	n/a	n/a	n/a	n/a	n/a	n/a	n/a	n/a	n/a	n/a	n/a	n/a	n/a	n/a	n/a	n/a	n/a	n/a	n/a	n/a	n/a	n/a	n/a	n/a	n/a	n/a	n/a	n/a	n/a	n/a	n/a	n/a	n/a	n/a	n/a	n/a	n/a	n/a	n/a	n/a	n/a	n/a	n/a	n/a	n/a	n/a	n/a	n/a	5.0	1.0	5.0	n/a	n/a	n/a	n/a	n/a	n/a	n/a	n/a	n/a	n/a	n/a	n/a	F1_05.jpg	500	0	810606	0	810606	0	TrialProc1	F1OfficeSmallBlockList	2500	0	808106	0	808106	0	808106	2500	c	969	809075	42.0
45	2.5	000_R01_VB_allProc	118	1	"<?xml version=""1.0""?>\n<Clock xmlns:dt=""urn:schemas-microsoft-com:datatypes""><Description dt:dt=""string"">E-Prime Primary Realtime Clock</Description><StartTime><Timestamp dt:dt=""int"">0</Timestamp><DateUtc dt:dt=""string"">2021-08-20T20:14:17Z</DateUtc></StartTime><FrequencyChanges><FrequencyChange><Frequency dt:dt=""r8"">3020390</Frequency><Timestamp dt:dt=""r8"">7347546218939</Timestamp><Current dt:dt=""r8"">0</Current><DateUtc dt:dt=""string"">2021-08-20T20:14:17Z</DateUtc></FrequencyChange></FrequencyChanges></Clock>\n"	000_R01_VB_allProc-118-1	60.001	1.0.0.232	1	-1142253473	Professional	2.0.10.356	2.0.10.356	08-20-2021	8/20/2021 8:14:17 PM	16:14:17	2.0.10.252	5	0	0	766107	20	766107	3999	-999999	934978	0	926104	0	Run1Proc	5	1	5	RunList	2	OfficeSmall	8000	0	814106	0	814106	0	814106	0	F1OfficeSmallBlockProc	2.0	1.0	2.0	n/a	n/a	n/a	n/a	n/a	n/a	n/a	n/a	n/a	n/a	n/a	n/a	Run1BlockList	6	n/a	n/a	n/a	n/a	n/a	n/a	n/a	n/a	n/a	n/a	n/a	n/a	n/a	n/a	n/a	n/a	n/a	n/a	n/a	n/a	n/a	n/a	n/a	n/a	n/a	n/a	n/a	n/a	n/a	n/a	n/a	n/a	n/a	n/a	n/a	n/a	n/a	n/a	n/a	n/a	n/a	n/a	n/a	n/a	n/a	n/a	n/a	n/a	n/a	n/a	n/a	n/a	n/a	n/a	n/a	n/a	n/a	n/a	n/a	n/a	n/a	n/a	n/a	n/a	n/a	n/a	n/a	n/a	n/a	n/a	n/a	n/a	n/a	n/a	n/a	6.0	1.0	6.0	n/a	n/a	n/a	n/a	n/a	n/a	n/a	n/a	n/a	n/a	n/a	n/a	F1_06.jpg	500	0	813606	0	813606	0	TrialProc1	F1OfficeSmallBlockList	2500	0	811106	0	811106	0	811106	2500	c	497	811603	45.0
56	2.5	000_R01_VB_allProc	118	1	"<?xml version=""1.0""?>\n<Clock xmlns:dt=""urn:schemas-microsoft-com:datatypes""><Description dt:dt=""string"">E-Prime Primary Realtime Clock</Description><StartTime><Timestamp dt:dt=""int"">0</Timestamp><DateUtc dt:dt=""string"">2021-08-20T20:14:17Z</DateUtc></StartTime><FrequencyChanges><FrequencyChange><Frequency dt:dt=""r8"">3020390</Frequency><Timestamp dt:dt=""r8"">7347546218939</Timestamp><Current dt:dt=""r8"">0</Current><DateUtc dt:dt=""string"">2021-08-20T20:14:17Z</DateUtc></FrequencyChange></FrequencyChanges></Clock>\n"	000_R01_VB_allProc-118-1	60.001	1.0.0.232	1	-1142253473	Professional	2.0.10.356	2.0.10.356	08-20-2021	8/20/2021 8:14:17 PM	16:14:17	2.0.10.252	5	0	0	766107	20	766107	3999	-999999	934978	0	926104	0	Run1Proc	5	1	5	RunList	3	LowLargeED	8000	0	840105	0	840105	0	840105	0	C1LowLargeEDBlockProc	3.0	1.0	3.0	n/a	n/a	n/a	n/a	n/a	n/a	n/a	n/a	n/a	n/a	n/a	n/a	Run1BlockList	1	n/a	n/a	n/a	n/a	n/a	n/a	n/a	n/a	n/a	n/a	n/a	n/a	n/a	n/a	n/a	n/a	n/a	n/a	n/a	n/a	n/a	n/a	n/a	n/a	n/a	n/a	n/a	n/a	n/a	n/a	1.0	1.0	1.0	n/a	n/a	n/a	n/a	n/a	n/a	n/a	n/a	n/a	n/a	n/a	n/a	n/a	n/a	n/a	n/a	n/a	n/a	n/a	n/a	n/a	n/a	n/a	n/a	n/a	n/a	n/a	n/a	n/a	n/a	n/a	n/a	n/a	n/a	n/a	n/a	n/a	n/a	n/a	n/a	n/a	n/a	n/a	n/a	n/a	n/a	n/a	n/a	n/a	n/a	n/a	n/a	n/a	n/a	n/a	n/a	n/a	C1_01.jpg	500	0	824606	0	824606	0	TrialProc1	C1LowLargeEDBlockList	2500	0	822106	0	822106	0	822106	2500	c	2249	824355	56.0
59	2.5	000_R01_VB_allProc	118	1	"<?xml version=""1.0""?>\n<Clock xmlns:dt=""urn:schemas-microsoft-com:datatypes""><Description dt:dt=""string"">E-Prime Primary Realtime Clock</Description><StartTime><Timestamp dt:dt=""int"">0</Timestamp><DateUtc dt:dt=""string"">2021-08-20T20:14:17Z</DateUtc></StartTime><FrequencyChanges><FrequencyChange><Frequency dt:dt=""r8"">3020390</Frequency><Timestamp dt:dt=""r8"">7347546218939</Timestamp><Current dt:dt=""r8"">0</Current><DateUtc dt:dt=""string"">2021-08-20T20:14:17Z</DateUtc></FrequencyChange></FrequencyChanges></Clock>\n"	000_R01_VB_allProc-118-1	60.001	1.0.0.232	1	-1142253473	Professional	2.0.10.356	2.0.10.356	08-20-2021	8/20/2021 8:14:17 PM	16:14:17	2.0.10.252	5	0	0	766107	20	766107	3999	-999999	934978	0	926104	0	Run1Proc	5	1	5	RunList	3	LowLargeED	8000	0	840105	0	840105	0	840105	0	C1LowLargeEDBlockProc	3.0	1.0	3.0	n/a	n/a	n/a	n/a	n/a	n/a	n/a	n/a	n/a	n/a	n/a	n/a	Run1BlockList	2	n/a	n/a	n/a	n/a	n/a	n/a	n/a	n/a	n/a	n/a	n/a	n/a	n/a	n/a	n/a	n/a	n/a	n/a	n/a	n/a	n/a	n/a	n/a	n/a	n/a	n/a	n/a	n/a	n/a	n/a	2.0	1.0	2.0	n/a	n/a	n/a	n/a	n/a	n/a	n/a	n/a	n/a	n/a	n/a	n/a	n/a	n/a	n/a	n/a	n/a	n/a	n/a	n/a	n/a	n/a	n/a	n/a	n/a	n/a	n/a	n/a	n/a	n/a	n/a	n/a	n/a	n/a	n/a	n/a	n/a	n/a	n/a	n/a	n/a	n/a	n/a	n/a	n/a	n/a	n/a	n/a	n/a	n/a	n/a	n/a	n/a	n/a	n/a	n/a	n/a	C1_02.jpg	500	0	827606	0	827606	0	TrialProc1	C1LowLargeEDBlockList	2500	0	825106	0	825106	0	825106	2500	c	2169	827275	59.0
62	2.5	000_R01_VB_allProc	118	1	"<?xml version=""1.0""?>\n<Clock xmlns:dt=""urn:schemas-microsoft-com:datatypes""><Description dt:dt=""string"">E-Prime Primary Realtime Clock</Description><StartTime><Timestamp dt:dt=""int"">0</Timestamp><DateUtc dt:dt=""string"">2021-08-20T20:14:17Z</DateUtc></StartTime><FrequencyChanges><FrequencyChange><Frequency dt:dt=""r8"">3020390</Frequency><Timestamp dt:dt=""r8"">7347546218939</Timestamp><Current dt:dt=""r8"">0</Current><DateUtc dt:dt=""string"">2021-08-20T20:14:17Z</DateUtc></FrequencyChange></FrequencyChanges></Clock>\n"	000_R01_VB_allProc-118-1	60.001	1.0.0.232	1	-1142253473	Professional	2.0.10.356	2.0.10.356	08-20-2021	8/20/2021 8:14:17 PM	16:14:17	2.0.10.252	5	0	0	766107	20	766107	3999	-999999	934978	0	926104	0	Run1Proc	5	1	5	RunList	3	LowLargeED	8000	0	840105	0	840105	0	840105	0	C1LowLargeEDBlockProc	3.0	1.0	3.0	n/a	n/a	n/a	n/a	n/a	n/a	n/a	n/a	n/a	n/a	n/a	n/a	Run1BlockList	3	n/a	n/a	n/a	n/a	n/a	n/a	n/a	n/a	n/a	n/a	n/a	n/a	n/a	n/a	n/a	n/a	n/a	n/a	n/a	n/a	n/a	n/a	n/a	n/a	n/a	n/a	n/a	n/a	n/a	n/a	3.0	1.0	3.0	n/a	n/a	n/a	n/a	n/a	n/a	n/a	n/a	n/a	n/a	n/a	n/a	n/a	n/a	n/a	n/a	n/a	n/a	n/a	n/a	n/a	n/a	n/a	n/a	n/a	n/a	n/a	n/a	n/a	n/a	n/a	n/a	n/a	n/a	n/a	n/a	n/a	n/a	n/a	n/a	n/a	n/a	n/a	n/a	n/a	n/a	n/a	n/a	n/a	n/a	n/a	n/a	n/a	n/a	n/a	n/a	n/a	C1_03.jpg	500	1	830606	-1	830605	0	TrialProc1	C1LowLargeEDBlockList	2500	0	828106	0	828106	0	828106	2499	c	1417	829523	62.0
65	2.5	000_R01_VB_allProc	118	1	"<?xml version=""1.0""?>\n<Clock xmlns:dt=""urn:schemas-microsoft-com:datatypes""><Description dt:dt=""string"">E-Prime Primary Realtime Clock</Description><StartTime><Timestamp dt:dt=""int"">0</Timestamp><DateUtc dt:dt=""string"">2021-08-20T20:14:17Z</DateUtc></StartTime><FrequencyChanges><FrequencyChange><Frequency dt:dt=""r8"">3020390</Frequency><Timestamp dt:dt=""r8"">7347546218939</Timestamp><Current dt:dt=""r8"">0</Current><DateUtc dt:dt=""string"">2021-08-20T20:14:17Z</DateUtc></FrequencyChange></FrequencyChanges></Clock>\n"	000_R01_VB_allProc-118-1	60.001	1.0.0.232	1	-1142253473	Professional	2.0.10.356	2.0.10.356	08-20-2021	8/20/2021 8:14:17 PM	16:14:17	2.0.10.252	5	0	0	766107	20	766107	3999	-999999	934978	0	926104	0	Run1Proc	5	1	5	RunList	3	LowLargeED	8000	0	840105	0	840105	0	840105	0	C1LowLargeEDBlockProc	3.0	1.0	3.0	n/a	n/a	n/a	n/a	n/a	n/a	n/a	n/a	n/a	n/a	n/a	n/a	Run1BlockList	4	n/a	n/a	n/a	n/a	n/a	n/a	n/a	n/a	n/a	n/a	n/a	n/a	n/a	n/a	n/a	n/a	n/a	n/a	n/a	n/a	n/a	n/a	n/a	n/a	n/a	n/a	n/a	n/a	n/a	n/a	4.0	1.0	4.0	n/a	n/a	n/a	n/a	n/a	n/a	n/a	n/a	n/a	n/a	n/a	n/a	n/a	n/a	n/a	n/a	n/a	n/a	n/a	n/a	n/a	n/a	n/a	n/a	n/a	n/a	n/a	n/a	n/a	n/a	n/a	n/a	n/a	n/a	n/a	n/a	n/a	n/a	n/a	n/a	n/a	n/a	n/a	n/a	n/a	n/a	n/a	n/a	n/a	n/a	n/a	n/a	n/a	n/a	n/a	n/a	n/a	C1_04.jpg	500	1	833606	0	833605	0	TrialProc1	C1LowLargeEDBlockList	2500	1	831106	1	831106	0	831105	2500	d	1706	832811	64.999
68	2.5	000_R01_VB_allProc	118	1	"<?xml version=""1.0""?>\n<Clock xmlns:dt=""urn:schemas-microsoft-com:datatypes""><Description dt:dt=""string"">E-Prime Primary Realtime Clock</Description><StartTime><Timestamp dt:dt=""int"">0</Timestamp><DateUtc dt:dt=""string"">2021-08-20T20:14:17Z</DateUtc></StartTime><FrequencyChanges><FrequencyChange><Frequency dt:dt=""r8"">3020390</Frequency><Timestamp dt:dt=""r8"">7347546218939</Timestamp><Current dt:dt=""r8"">0</Current><DateUtc dt:dt=""string"">2021-08-20T20:14:17Z</DateUtc></FrequencyChange></FrequencyChanges></Clock>\n"	000_R01_VB_allProc-118-1	60.001	1.0.0.232	1	-1142253473	Professional	2.0.10.356	2.0.10.356	08-20-2021	8/20/2021 8:14:17 PM	16:14:17	2.0.10.252	5	0	0	766107	20	766107	3999	-999999	934978	0	926104	0	Run1Proc	5	1	5	RunList	3	LowLargeED	8000	0	840105	0	840105	0	840105	0	C1LowLargeEDBlockProc	3.0	1.0	3.0	n/a	n/a	n/a	n/a	n/a	n/a	n/a	n/a	n/a	n/a	n/a	n/a	Run1BlockList	5	n/a	n/a	n/a	n/a	n/a	n/a	n/a	n/a	n/a	n/a	n/a	n/a	n/a	n/a	n/a	n/a	n/a	n/a	n/a	n/a	n/a	n/a	n/a	n/a	n/a	n/a	n/a	n/a	n/a	n/a	5.0	1.0	5.0	n/a	n/a	n/a	n/a	n/a	n/a	n/a	n/a	n/a	n/a	n/a	n/a	n/a	n/a	n/a	n/a	n/a	n/a	n/a	n/a	n/a	n/a	n/a	n/a	n/a	n/a	n/a	n/a	n/a	n/a	n/a	n/a	n/a	n/a	n/a	n/a	n/a	n/a	n/a	n/a	n/a	n/a	n/a	n/a	n/a	n/a	n/a	n/a	n/a	n/a	n/a	n/a	n/a	n/a	n/a	n/a	n/a	C1_05.jpg	500	0	836605	0	836605	0	TrialProc1	C1LowLargeEDBlockList	2500	1	834106	1	834106	0	834105	2500	d	1738	835843	67.999
71	2.5	000_R01_VB_allProc	118	1	"<?xml version=""1.0""?>\n<Clock xmlns:dt=""urn:schemas-microsoft-com:datatypes""><Description dt:dt=""string"">E-Prime Primary Realtime Clock</Description><StartTime><Timestamp dt:dt=""int"">0</Timestamp><DateUtc dt:dt=""string"">2021-08-20T20:14:17Z</DateUtc></StartTime><FrequencyChanges><FrequencyChange><Frequency dt:dt=""r8"">3020390</Frequency><Timestamp dt:dt=""r8"">7347546218939</Timestamp><Current dt:dt=""r8"">0</Current><DateUtc dt:dt=""string"">2021-08-20T20:14:17Z</DateUtc></FrequencyChange></FrequencyChanges></Clock>\n"	000_R01_VB_allProc-118-1	60.001	1.0.0.232	1	-1142253473	Professional	2.0.10.356	2.0.10.356	08-20-2021	8/20/2021 8:14:17 PM	16:14:17	2.0.10.252	5	0	0	766107	20	766107	3999	-999999	934978	0	926104	0	Run1Proc	5	1	5	RunList	3	LowLargeED	8000	0	840105	0	840105	0	840105	0	C1LowLargeEDBlockProc	3.0	1.0	3.0	n/a	n/a	n/a	n/a	n/a	n/a	n/a	n/a	n/a	n/a	n/a	n/a	Run1BlockList	6	n/a	n/a	n/a	n/a	n/a	n/a	n/a	n/a	n/a	n/a	n/a	n/a	n/a	n/a	n/a	n/a	n/a	n/a	n/a	n/a	n/a	n/a	n/a	n/a	n/a	n/a	n/a	n/a	n/a	n/a	6.0	1.0	6.0	n/a	n/a	n/a	n/a	n/a	n/a	n/a	n/a	n/a	n/a	n/a	n/a	n/a	n/a	n/a	n/a	n/a	n/a	n/a	n/a	n/a	n/a	n/a	n/a	n/a	n/a	n/a	n/a	n/a	n/a	n/a	n/a	n/a	n/a	n/a	n/a	n/a	n/a	n/a	n/a	n/a	n/a	n/a	n/a	n/a	n/a	n/a	n/a	n/a	n/a	n/a	n/a	n/a	n/a	n/a	n/a	n/a	C1_06.jpg	500	0	839605	0	839605	0	TrialProc1	C1LowLargeEDBlockList	2500	0	837105	0	837105	0	837105	2500	c	1578	838683	70.999
82	2.5	000_R01_VB_allProc	118	1	"<?xml version=""1.0""?>\n<Clock xmlns:dt=""urn:schemas-microsoft-com:datatypes""><Description dt:dt=""string"">E-Prime Primary Realtime Clock</Description><StartTime><Timestamp dt:dt=""int"">0</Timestamp><DateUtc dt:dt=""string"">2021-08-20T20:14:17Z</DateUtc></StartTime><FrequencyChanges><FrequencyChange><Frequency dt:dt=""r8"">3020390</Frequency><Timestamp dt:dt=""r8"">7347546218939</Timestamp><Current dt:dt=""r8"">0</Current><DateUtc dt:dt=""string"">2021-08-20T20:14:17Z</DateUtc></FrequencyChange></FrequencyChanges></Clock>\n"	000_R01_VB_allProc-118-1	60.001	1.0.0.232	1	-1142253473	Professional	2.0.10.356	2.0.10.356	08-20-2021	8/20/2021 8:14:17 PM	16:14:17	2.0.10.252	5	0	0	766107	20	766107	3999	-999999	934978	0	926104	0	Run1Proc	5	1	5	RunList	4	LowSmallED	8000	0	866105	0	866105	0	866105	0	D1LowSmallEDBlockProc	4.0	1.0	4.0	n/a	n/a	n/a	n/a	n/a	n/a	n/a	n/a	n/a	n/a	n/a	n/a	Run1BlockList	1	n/a	n/a	n/a	n/a	n/a	n/a	n/a	n/a	n/a	n/a	n/a	n/a	n/a	n/a	n/a	n/a	n/a	n/a	n/a	n/a	n/a	n/a	n/a	n/a	n/a	n/a	n/a	n/a	n/a	n/a	n/a	n/a	n/a	n/a	n/a	n/a	n/a	n/a	n/a	n/a	n/a	n/a	n/a	n/a	n/a	1.0	1.0	1.0	n/a	n/a	n/a	n/a	n/a	n/a	n/a	n/a	n/a	n/a	n/a	n/a	n/a	n/a	n/a	n/a	n/a	n/a	n/a	n/a	n/a	n/a	n/a	n/a	n/a	n/a	n/a	n/a	n/a	n/a	n/a	n/a	n/a	n/a	n/a	n/a	n/a	n/a	n/a	n/a	n/a	n/a	D1_01.jpg	500	0	850605	0	850605	0	TrialProc1	D1LowSmallEDBlockList	2500	0	848105	0	848105	0	848105	2500	d	1386	849491	81.999
85	2.5	000_R01_VB_allProc	118	1	"<?xml version=""1.0""?>\n<Clock xmlns:dt=""urn:schemas-microsoft-com:datatypes""><Description dt:dt=""string"">E-Prime Primary Realtime Clock</Description><StartTime><Timestamp dt:dt=""int"">0</Timestamp><DateUtc dt:dt=""string"">2021-08-20T20:14:17Z</DateUtc></StartTime><FrequencyChanges><FrequencyChange><Frequency dt:dt=""r8"">3020390</Frequency><Timestamp dt:dt=""r8"">7347546218939</Timestamp><Current dt:dt=""r8"">0</Current><DateUtc dt:dt=""string"">2021-08-20T20:14:17Z</DateUtc></FrequencyChange></FrequencyChanges></Clock>\n"	000_R01_VB_allProc-118-1	60.001	1.0.0.232	1	-1142253473	Professional	2.0.10.356	2.0.10.356	08-20-2021	8/20/2021 8:14:17 PM	16:14:17	2.0.10.252	5	0	0	766107	20	766107	3999	-999999	934978	0	926104	0	Run1Proc	5	1	5	RunList	4	LowSmallED	8000	0	866105	0	866105	0	866105	0	D1LowSmallEDBlockProc	4.0	1.0	4.0	n/a	n/a	n/a	n/a	n/a	n/a	n/a	n/a	n/a	n/a	n/a	n/a	Run1BlockList	2	n/a	n/a	n/a	n/a	n/a	n/a	n/a	n/a	n/a	n/a	n/a	n/a	n/a	n/a	n/a	n/a	n/a	n/a	n/a	n/a	n/a	n/a	n/a	n/a	n/a	n/a	n/a	n/a	n/a	n/a	n/a	n/a	n/a	n/a	n/a	n/a	n/a	n/a	n/a	n/a	n/a	n/a	n/a	n/a	n/a	2.0	1.0	2.0	n/a	n/a	n/a	n/a	n/a	n/a	n/a	n/a	n/a	n/a	n/a	n/a	n/a	n/a	n/a	n/a	n/a	n/a	n/a	n/a	n/a	n/a	n/a	n/a	n/a	n/a	n/a	n/a	n/a	n/a	n/a	n/a	n/a	n/a	n/a	n/a	n/a	n/a	n/a	n/a	n/a	n/a	D1_02.jpg	500	0	853605	0	853605	0	TrialProc1	D1LowSmallEDBlockList	2500	0	851105	0	851105	0	851105	2500	c	1186	852291	84.999
88	2.5	000_R01_VB_allProc	118	1	"<?xml version=""1.0""?>\n<Clock xmlns:dt=""urn:schemas-microsoft-com:datatypes""><Description dt:dt=""string"">E-Prime Primary Realtime Clock</Description><StartTime><Timestamp dt:dt=""int"">0</Timestamp><DateUtc dt:dt=""string"">2021-08-20T20:14:17Z</DateUtc></StartTime><FrequencyChanges><FrequencyChange><Frequency dt:dt=""r8"">3020390</Frequency><Timestamp dt:dt=""r8"">7347546218939</Timestamp><Current dt:dt=""r8"">0</Current><DateUtc dt:dt=""string"">2021-08-20T20:14:17Z</DateUtc></FrequencyChange></FrequencyChanges></Clock>\n"	000_R01_VB_allProc-118-1	60.001	1.0.0.232	1	-1142253473	Professional	2.0.10.356	2.0.10.356	08-20-2021	8/20/2021 8:14:17 PM	16:14:17	2.0.10.252	5	0	0	766107	20	766107	3999	-999999	934978	0	926104	0	Run1Proc	5	1	5	RunList	4	LowSmallED	8000	0	866105	0	866105	0	866105	0	D1LowSmallEDBlockProc	4.0	1.0	4.0	n/a	n/a	n/a	n/a	n/a	n/a	n/a	n/a	n/a	n/a	n/a	n/a	Run1BlockList	3	n/a	n/a	n/a	n/a	n/a	n/a	n/a	n/a	n/a	n/a	n/a	n/a	n/a	n/a	n/a	n/a	n/a	n/a	n/a	n/a	n/a	n/a	n/a	n/a	n/a	n/a	n/a	n/a	n/a	n/a	n/a	n/a	n/a	n/a	n/a	n/a	n/a	n/a	n/a	n/a	n/a	n/a	n/a	n/a	n/a	3.0	1.0	3.0	n/a	n/a	n/a	n/a	n/a	n/a	n/a	n/a	n/a	n/a	n/a	n/a	n/a	n/a	n/a	n/a	n/a	n/a	n/a	n/a	n/a	n/a	n/a	n/a	n/a	n/a	n/a	n/a	n/a	n/a	n/a	n/a	n/a	n/a	n/a	n/a	n/a	n/a	n/a	n/a	n/a	n/a	D1_03.jpg	500	0	856605	0	856605	0	TrialProc1	D1LowSmallEDBlockList	2500	0	854105	0	854105	0	854105	2500	c	2010	856115	87.999
91	2.5	000_R01_VB_allProc	118	1	"<?xml version=""1.0""?>\n<Clock xmlns:dt=""urn:schemas-microsoft-com:datatypes""><Description dt:dt=""string"">E-Prime Primary Realtime Clock</Description><StartTime><Timestamp dt:dt=""int"">0</Timestamp><DateUtc dt:dt=""string"">2021-08-20T20:14:17Z</DateUtc></StartTime><FrequencyChanges><FrequencyChange><Frequency dt:dt=""r8"">3020390</Frequency><Timestamp dt:dt=""r8"">7347546218939</Timestamp><Current dt:dt=""r8"">0</Current><DateUtc dt:dt=""string"">2021-08-20T20:14:17Z</DateUtc></FrequencyChange></FrequencyChanges></Clock>\n"	000_R01_VB_allProc-118-1	60.001	1.0.0.232	1	-1142253473	Professional	2.0.10.356	2.0.10.356	08-20-2021	8/20/2021 8:14:17 PM	16:14:17	2.0.10.252	5	0	0	766107	20	766107	3999	-999999	934978	0	926104	0	Run1Proc	5	1	5	RunList	4	LowSmallED	8000	0	866105	0	866105	0	866105	0	D1LowSmallEDBlockProc	4.0	1.0	4.0	n/a	n/a	n/a	n/a	n/a	n/a	n/a	n/a	n/a	n/a	n/a	n/a	Run1BlockList	4	n/a	n/a	n/a	n/a	n/a	n/a	n/a	n/a	n/a	n/a	n/a	n/a	n/a	n/a	n/a	n/a	n/a	n/a	n/a	n/a	n/a	n/a	n/a	n/a	n/a	n/a	n/a	n/a	n/a	n/a	n/a	n/a	n/a	n/a	n/a	n/a	n/a	n/a	n/a	n/a	n/a	n/a	n/a	n/a	n/a	4.0	1.0	4.0	n/a	n/a	n/a	n/a	n/a	n/a	n/a	n/a	n/a	n/a	n/a	n/a	n/a	n/a	n/a	n/a	n/a	n/a	n/a	n/a	n/a	n/a	n/a	n/a	n/a	n/a	n/a	n/a	n/a	n/a	n/a	n/a	n/a	n/a	n/a	n/a	n/a	n/a	n/a	n/a	n/a	n/a	D1_04.jpg	500	0	859605	0	859605	0	TrialProc1	D1LowSmallEDBlockList	2500	0	857105	0	857105	0	857105	2500	d	954	858059	90.999
94	2.5	000_R01_VB_allProc	118	1	"<?xml version=""1.0""?>\n<Clock xmlns:dt=""urn:schemas-microsoft-com:datatypes""><Description dt:dt=""string"">E-Prime Primary Realtime Clock</Description><StartTime><Timestamp dt:dt=""int"">0</Timestamp><DateUtc dt:dt=""string"">2021-08-20T20:14:17Z</DateUtc></StartTime><FrequencyChanges><FrequencyChange><Frequency dt:dt=""r8"">3020390</Frequency><Timestamp dt:dt=""r8"">7347546218939</Timestamp><Current dt:dt=""r8"">0</Current><DateUtc dt:dt=""string"">2021-08-20T20:14:17Z</DateUtc></FrequencyChange></FrequencyChanges></Clock>\n"	000_R01_VB_allProc-118-1	60.001	1.0.0.232	1	-1142253473	Professional	2.0.10.356	2.0.10.356	08-20-2021	8/20/2021 8:14:17 PM	16:14:17	2.0.10.252	5	0	0	766107	20	766107	3999	-999999	934978	0	926104	0	Run1Proc	5	1	5	RunList	4	LowSmallED	8000	0	866105	0	866105	0	866105	0	D1LowSmallEDBlockProc	4.0	1.0	4.0	n/a	n/a	n/a	n/a	n/a	n/a	n/a	n/a	n/a	n/a	n/a	n/a	Run1BlockList	5	n/a	n/a	n/a	n/a	n/a	n/a	n/a	n/a	n/a	n/a	n/a	n/a	n/a	n/a	n/a	n/a	n/a	n/a	n/a	n/a	n/a	n/a	n/a	n/a	n/a	n/a	n/a	n/a	n/a	n/a	n/a	n/a	n/a	n/a	n/a	n/a	n/a	n/a	n/a	n/a	n/a	n/a	n/a	n/a	n/a	5.0	1.0	5.0	n/a	n/a	n/a	n/a	n/a	n/a	n/a	n/a	n/a	n/a	n/a	n/a	n/a	n/a	n/a	n/a	n/a	n/a	n/a	n/a	n/a	n/a	n/a	n/a	n/a	n/a	n/a	n/a	n/a	n/a	n/a	n/a	n/a	n/a	n/a	n/a	n/a	n/a	n/a	n/a	n/a	n/a	D1_05.jpg	500	0	862605	0	862605	0	TrialProc1	D1LowSmallEDBlockList	2500	0	860105	0	860105	0	860105	2500	d	1193	861298	93.999
97	2.5	000_R01_VB_allProc	118	1	"<?xml version=""1.0""?>\n<Clock xmlns:dt=""urn:schemas-microsoft-com:datatypes""><Description dt:dt=""string"">E-Prime Primary Realtime Clock</Description><StartTime><Timestamp dt:dt=""int"">0</Timestamp><DateUtc dt:dt=""string"">2021-08-20T20:14:17Z</DateUtc></StartTime><FrequencyChanges><FrequencyChange><Frequency dt:dt=""r8"">3020390</Frequency><Timestamp dt:dt=""r8"">7347546218939</Timestamp><Current dt:dt=""r8"">0</Current><DateUtc dt:dt=""string"">2021-08-20T20:14:17Z</DateUtc></FrequencyChange></FrequencyChanges></Clock>\n"	000_R01_VB_allProc-118-1	60.001	1.0.0.232	1	-1142253473	Professional	2.0.10.356	2.0.10.356	08-20-2021	8/20/2021 8:14:17 PM	16:14:17	2.0.10.252	5	0	0	766107	20	766107	3999	-999999	934978	0	926104	0	Run1Proc	5	1	5	RunList	4	LowSmallED	8000	0	866105	0	866105	0	866105	0	D1LowSmallEDBlockProc	4.0	1.0	4.0	n/a	n/a	n/a	n/a	n/a	n/a	n/a	n/a	n/a	n/a	n/a	n/a	Run1BlockList	6	n/a	n/a	n/a	n/a	n/a	n/a	n/a	n/a	n/a	n/a	n/a	n/a	n/a	n/a	n/a	n/a	n/a	n/a	n/a	n/a	n/a	n/a	n/a	n/a	n/a	n/a	n/a	n/a	n/a	n/a	n/a	n/a	n/a	n/a	n/a	n/a	n/a	n/a	n/a	n/a	n/a	n/a	n/a	n/a	n/a	6.0	1.0	6.0	n/a	n/a	n/a	n/a	n/a	n/a	n/a	n/a	n/a	n/a	n/a	n/a	n/a	n/a	n/a	n/a	n/a	n/a	n/a	n/a	n/a	n/a	n/a	n/a	n/a	n/a	n/a	n/a	n/a	n/a	n/a	n/a	n/a	n/a	n/a	n/a	n/a	n/a	n/a	n/a	n/a	n/a	D1_06.jpg	500	0	865605	0	865605	0	TrialProc1	D1LowSmallEDBlockList	2500	0	863105	0	863105	0	863105	2500	d	1257	864362	96.999
108	2.5	000_R01_VB_allProc	118	1	"<?xml version=""1.0""?>\n<Clock xmlns:dt=""urn:schemas-microsoft-com:datatypes""><Description dt:dt=""string"">E-Prime Primary Realtime Clock</Description><StartTime><Timestamp dt:dt=""int"">0</Timestamp><DateUtc dt:dt=""string"">2021-08-20T20:14:17Z</DateUtc></StartTime><FrequencyChanges><FrequencyChange><Frequency dt:dt=""r8"">3020390</Frequency><Timestamp dt:dt=""r8"">7347546218939</Timestamp><Current dt:dt=""r8"">0</Current><DateUtc dt:dt=""string"">2021-08-20T20:14:17Z</DateUtc></FrequencyChange></FrequencyChanges></Clock>\n"	000_R01_VB_allProc-118-1	60.001	1.0.0.232	1	-1142253473	Professional	2.0.10.356	2.0.10.356	08-20-2021	8/20/2021 8:14:17 PM	16:14:17	2.0.10.252	5	0	0	766107	20	766107	3999	-999999	934978	0	926104	0	Run1Proc	5	1	5	RunList	5	OfficeLarge	8000	0	892105	0	892105	1	892105	0	E1OfficeLargeBlockProc	5.0	1.0	5.0	n/a	n/a	n/a	n/a	n/a	n/a	n/a	n/a	n/a	n/a	n/a	n/a	Run1BlockList	1	n/a	n/a	n/a	n/a	n/a	n/a	n/a	n/a	n/a	n/a	n/a	n/a	n/a	n/a	n/a	n/a	n/a	n/a	n/a	n/a	n/a	n/a	n/a	n/a	n/a	n/a	n/a	n/a	n/a	n/a	n/a	n/a	n/a	n/a	n/a	n/a	n/a	n/a	n/a	n/a	n/a	n/a	n/a	n/a	n/a	n/a	n/a	n/a	n/a	n/a	n/a	n/a	n/a	n/a	n/a	n/a	n/a	n/a	n/a	n/a	1.0	1.0	1.0	n/a	n/a	n/a	n/a	n/a	n/a	n/a	n/a	n/a	n/a	n/a	n/a	n/a	n/a	n/a	n/a	n/a	n/a	n/a	n/a	n/a	n/a	n/a	n/a	n/a	n/a	n/a	E1_01.jpg	500	0	876605	0	876605	0	TrialProc1	E1OfficeLargeBlockList	2500	0	874105	0	874105	0	874105	2500	c	1577	875682	107.999
111	2.5	000_R01_VB_allProc	118	1	"<?xml version=""1.0""?>\n<Clock xmlns:dt=""urn:schemas-microsoft-com:datatypes""><Description dt:dt=""string"">E-Prime Primary Realtime Clock</Description><StartTime><Timestamp dt:dt=""int"">0</Timestamp><DateUtc dt:dt=""string"">2021-08-20T20:14:17Z</DateUtc></StartTime><FrequencyChanges><FrequencyChange><Frequency dt:dt=""r8"">3020390</Frequency><Timestamp dt:dt=""r8"">7347546218939</Timestamp><Current dt:dt=""r8"">0</Current><DateUtc dt:dt=""string"">2021-08-20T20:14:17Z</DateUtc></FrequencyChange></FrequencyChanges></Clock>\n"	000_R01_VB_allProc-118-1	60.001	1.0.0.232	1	-1142253473	Professional	2.0.10.356	2.0.10.356	08-20-2021	8/20/2021 8:14:17 PM	16:14:17	2.0.10.252	5	0	0	766107	20	766107	3999	-999999	934978	0	926104	0	Run1Proc	5	1	5	RunList	5	OfficeLarge	8000	0	892105	0	892105	1	892105	0	E1OfficeLargeBlockProc	5.0	1.0	5.0	n/a	n/a	n/a	n/a	n/a	n/a	n/a	n/a	n/a	n/a	n/a	n/a	Run1BlockList	2	n/a	n/a	n/a	n/a	n/a	n/a	n/a	n/a	n/a	n/a	n/a	n/a	n/a	n/a	n/a	n/a	n/a	n/a	n/a	n/a	n/a	n/a	n/a	n/a	n/a	n/a	n/a	n/a	n/a	n/a	n/a	n/a	n/a	n/a	n/a	n/a	n/a	n/a	n/a	n/a	n/a	n/a	n/a	n/a	n/a	n/a	n/a	n/a	n/a	n/a	n/a	n/a	n/a	n/a	n/a	n/a	n/a	n/a	n/a	n/a	2.0	1.0	2.0	n/a	n/a	n/a	n/a	n/a	n/a	n/a	n/a	n/a	n/a	n/a	n/a	n/a	n/a	n/a	n/a	n/a	n/a	n/a	n/a	n/a	n/a	n/a	n/a	n/a	n/a	n/a	E1_02.jpg	500	0	879605	0	879605	0	TrialProc1	E1OfficeLargeBlockList	2500	0	877105	0	877105	0	877105	2500	c	921	878026	110.999
114	2.5	000_R01_VB_allProc	118	1	"<?xml version=""1.0""?>\n<Clock xmlns:dt=""urn:schemas-microsoft-com:datatypes""><Description dt:dt=""string"">E-Prime Primary Realtime Clock</Description><StartTime><Timestamp dt:dt=""int"">0</Timestamp><DateUtc dt:dt=""string"">2021-08-20T20:14:17Z</DateUtc></StartTime><FrequencyChanges><FrequencyChange><Frequency dt:dt=""r8"">3020390</Frequency><Timestamp dt:dt=""r8"">7347546218939</Timestamp><Current dt:dt=""r8"">0</Current><DateUtc dt:dt=""string"">2021-08-20T20:14:17Z</DateUtc></FrequencyChange></FrequencyChanges></Clock>\n"	000_R01_VB_allProc-118-1	60.001	1.0.0.232	1	-1142253473	Professional	2.0.10.356	2.0.10.356	08-20-2021	8/20/2021 8:14:17 PM	16:14:17	2.0.10.252	5	0	0	766107	20	766107	3999	-999999	934978	0	926104	0	Run1Proc	5	1	5	RunList	5	OfficeLarge	8000	0	892105	0	892105	1	892105	0	E1OfficeLargeBlockProc	5.0	1.0	5.0	n/a	n/a	n/a	n/a	n/a	n/a	n/a	n/a	n/a	n/a	n/a	n/a	Run1BlockList	3	n/a	n/a	n/a	n/a	n/a	n/a	n/a	n/a	n/a	n/a	n/a	n/a	n/a	n/a	n/a	n/a	n/a	n/a	n/a	n/a	n/a	n/a	n/a	n/a	n/a	n/a	n/a	n/a	n/a	n/a	n/a	n/a	n/a	n/a	n/a	n/a	n/a	n/a	n/a	n/a	n/a	n/a	n/a	n/a	n/a	n/a	n/a	n/a	n/a	n/a	n/a	n/a	n/a	n/a	n/a	n/a	n/a	n/a	n/a	n/a	3.0	1.0	3.0	n/a	n/a	n/a	n/a	n/a	n/a	n/a	n/a	n/a	n/a	n/a	n/a	n/a	n/a	n/a	n/a	n/a	n/a	n/a	n/a	n/a	n/a	n/a	n/a	n/a	n/a	n/a	E1_03.jpg	500	0	882605	0	882605	0	TrialProc1	E1OfficeLargeBlockList	2500	0	880105	0	880105	0	880105	2500	c	433	880538	113.999
117	2.5	000_R01_VB_allProc	118	1	"<?xml version=""1.0""?>\n<Clock xmlns:dt=""urn:schemas-microsoft-com:datatypes""><Description dt:dt=""string"">E-Prime Primary Realtime Clock</Description><StartTime><Timestamp dt:dt=""int"">0</Timestamp><DateUtc dt:dt=""string"">2021-08-20T20:14:17Z</DateUtc></StartTime><FrequencyChanges><FrequencyChange><Frequency dt:dt=""r8"">3020390</Frequency><Timestamp dt:dt=""r8"">7347546218939</Timestamp><Current dt:dt=""r8"">0</Current><DateUtc dt:dt=""string"">2021-08-20T20:14:17Z</DateUtc></FrequencyChange></FrequencyChanges></Clock>\n"	000_R01_VB_allProc-118-1	60.001	1.0.0.232	1	-1142253473	Professional	2.0.10.356	2.0.10.356	08-20-2021	8/20/2021 8:14:17 PM	16:14:17	2.0.10.252	5	0	0	766107	20	766107	3999	-999999	934978	0	926104	0	Run1Proc	5	1	5	RunList	5	OfficeLarge	8000	0	892105	0	892105	1	892105	0	E1OfficeLargeBlockProc	5.0	1.0	5.0	n/a	n/a	n/a	n/a	n/a	n/a	n/a	n/a	n/a	n/a	n/a	n/a	Run1BlockList	4	n/a	n/a	n/a	n/a	n/a	n/a	n/a	n/a	n/a	n/a	n/a	n/a	n/a	n/a	n/a	n/a	n/a	n/a	n/a	n/a	n/a	n/a	n/a	n/a	n/a	n/a	n/a	n/a	n/a	n/a	n/a	n/a	n/a	n/a	n/a	n/a	n/a	n/a	n/a	n/a	n/a	n/a	n/a	n/a	n/a	n/a	n/a	n/a	n/a	n/a	n/a	n/a	n/a	n/a	n/a	n/a	n/a	n/a	n/a	n/a	4.0	1.0	4.0	n/a	n/a	n/a	n/a	n/a	n/a	n/a	n/a	n/a	n/a	n/a	n/a	n/a	n/a	n/a	n/a	n/a	n/a	n/a	n/a	n/a	n/a	n/a	n/a	n/a	n/a	n/a	E1_04.jpg	500	0	885605	0	885605	0	TrialProc1	E1OfficeLargeBlockList	2500	0	883105	0	883105	0	883105	2500	n/a	0	0	116.999
120	2.5	000_R01_VB_allProc	118	1	"<?xml version=""1.0""?>\n<Clock xmlns:dt=""urn:schemas-microsoft-com:datatypes""><Description dt:dt=""string"">E-Prime Primary Realtime Clock</Description><StartTime><Timestamp dt:dt=""int"">0</Timestamp><DateUtc dt:dt=""string"">2021-08-20T20:14:17Z</DateUtc></StartTime><FrequencyChanges><FrequencyChange><Frequency dt:dt=""r8"">3020390</Frequency><Timestamp dt:dt=""r8"">7347546218939</Timestamp><Current dt:dt=""r8"">0</Current><DateUtc dt:dt=""string"">2021-08-20T20:14:17Z</DateUtc></FrequencyChange></FrequencyChanges></Clock>\n"	000_R01_VB_allProc-118-1	60.001	1.0.0.232	1	-1142253473	Professional	2.0.10.356	2.0.10.356	08-20-2021	8/20/2021 8:14:17 PM	16:14:17	2.0.10.252	5	0	0	766107	20	766107	3999	-999999	934978	0	926104	0	Run1Proc	5	1	5	RunList	5	OfficeLarge	8000	0	892105	0	892105	1	892105	0	E1OfficeLargeBlockProc	5.0	1.0	5.0	n/a	n/a	n/a	n/a	n/a	n/a	n/a	n/a	n/a	n/a	n/a	n/a	Run1BlockList	5	n/a	n/a	n/a	n/a	n/a	n/a	n/a	n/a	n/a	n/a	n/a	n/a	n/a	n/a	n/a	n/a	n/a	n/a	n/a	n/a	n/a	n/a	n/a	n/a	n/a	n/a	n/a	n/a	n/a	n/a	n/a	n/a	n/a	n/a	n/a	n/a	n/a	n/a	n/a	n/a	n/a	n/a	n/a	n/a	n/a	n/a	n/a	n/a	n/a	n/a	n/a	n/a	n/a	n/a	n/a	n/a	n/a	n/a	n/a	n/a	5.0	1.0	5.0	n/a	n/a	n/a	n/a	n/a	n/a	n/a	n/a	n/a	n/a	n/a	n/a	n/a	n/a	n/a	n/a	n/a	n/a	n/a	n/a	n/a	n/a	n/a	n/a	n/a	n/a	n/a	E1_05.jpg	500	0	888605	0	888605	0	TrialProc1	E1OfficeLargeBlockList	2500	0	886105	0	886105	0	886105	2500	c	521	886626	119.999
123	2.5	000_R01_VB_allProc	118	1	"<?xml version=""1.0""?>\n<Clock xmlns:dt=""urn:schemas-microsoft-com:datatypes""><Description dt:dt=""string"">E-Prime Primary Realtime Clock</Description><StartTime><Timestamp dt:dt=""int"">0</Timestamp><DateUtc dt:dt=""string"">2021-08-20T20:14:17Z</DateUtc></StartTime><FrequencyChanges><FrequencyChange><Frequency dt:dt=""r8"">3020390</Frequency><Timestamp dt:dt=""r8"">7347546218939</Timestamp><Current dt:dt=""r8"">0</Current><DateUtc dt:dt=""string"">2021-08-20T20:14:17Z</DateUtc></FrequencyChange></FrequencyChanges></Clock>\n"	000_R01_VB_allProc-118-1	60.001	1.0.0.232	1	-1142253473	Professional	2.0.10.356	2.0.10.356	08-20-2021	8/20/2021 8:14:17 PM	16:14:17	2.0.10.252	5	0	0	766107	20	766107	3999	-999999	934978	0	926104	0	Run1Proc	5	1	5	RunList	5	OfficeLarge	8000	0	892105	0	892105	1	892105	0	E1OfficeLargeBlockProc	5.0	1.0	5.0	n/a	n/a	n/a	n/a	n/a	n/a	n/a	n/a	n/a	n/a	n/a	n/a	Run1BlockList	6	n/a	n/a	n/a	n/a	n/a	n/a	n/a	n/a	n/a	n/a	n/a	n/a	n/a	n/a	n/a	n/a	n/a	n/a	n/a	n/a	n/a	n/a	n/a	n/a	n/a	n/a	n/a	n/a	n/a	n/a	n/a	n/a	n/a	n/a	n/a	n/a	n/a	n/a	n/a	n/a	n/a	n/a	n/a	n/a	n/a	n/a	n/a	n/a	n/a	n/a	n/a	n/a	n/a	n/a	n/a	n/a	n/a	n/a	n/a	n/a	6.0	1.0	6.0	n/a	n/a	n/a	n/a	n/a	n/a	n/a	n/a	n/a	n/a	n/a	n/a	n/a	n/a	n/a	n/a	n/a	n/a	n/a	n/a	n/a	n/a	n/a	n/a	n/a	n/a	n/a	E1_06.jpg	500	1	891605	-1	891604	0	TrialProc1	E1OfficeLargeBlockList	2500	0	889105	0	889105	0	889105	2499	c	577	889682	122.999
134	2.5	000_R01_VB_allProc	118	1	"<?xml version=""1.0""?>\n<Clock xmlns:dt=""urn:schemas-microsoft-com:datatypes""><Description dt:dt=""string"">E-Prime Primary Realtime Clock</Description><StartTime><Timestamp dt:dt=""int"">0</Timestamp><DateUtc dt:dt=""string"">2021-08-20T20:14:17Z</DateUtc></StartTime><FrequencyChanges><FrequencyChange><Frequency dt:dt=""r8"">3020390</Frequency><Timestamp dt:dt=""r8"">7347546218939</Timestamp><Current dt:dt=""r8"">0</Current><DateUtc dt:dt=""string"">2021-08-20T20:14:17Z</DateUtc></FrequencyChange></FrequencyChanges></Clock>\n"	000_R01_VB_allProc-118-1	60.001	1.0.0.232	1	-1142253473	Professional	2.0.10.356	2.0.10.356	08-20-2021	8/20/2021 8:14:17 PM	16:14:17	2.0.10.252	5	0	0	766107	20	766107	3999	-999999	934978	0	926104	0	Run1Proc	5	1	5	RunList	6	HighSmallED	8000	0	918104	0	918104	0	918104	0	B1HighSmallEDBlockProc	6.0	1.0	6.0	n/a	n/a	n/a	n/a	n/a	n/a	n/a	n/a	n/a	n/a	n/a	n/a	Run1BlockList	1	n/a	n/a	n/a	n/a	n/a	n/a	n/a	n/a	n/a	n/a	n/a	n/a	n/a	n/a	n/a	1.0	1.0	1.0	n/a	n/a	n/a	n/a	n/a	n/a	n/a	n/a	n/a	n/a	n/a	n/a	n/a	n/a	n/a	n/a	n/a	n/a	n/a	n/a	n/a	n/a	n/a	n/a	n/a	n/a	n/a	n/a	n/a	n/a	n/a	n/a	n/a	n/a	n/a	n/a	n/a	n/a	n/a	n/a	n/a	n/a	n/a	n/a	n/a	n/a	n/a	n/a	n/a	n/a	n/a	n/a	n/a	n/a	n/a	n/a	n/a	n/a	n/a	n/a	n/a	n/a	n/a	n/a	n/a	n/a	n/a	n/a	n/a	n/a	n/a	n/a	B1_01.jpg	500	0	902604	0	902604	0	TrialProc1	B1HighSmallEDBlockList	2500	0	900105	0	900104	-1	900104	2500	d	2122	902226	133.998
137	2.5	000_R01_VB_allProc	118	1	"<?xml version=""1.0""?>\n<Clock xmlns:dt=""urn:schemas-microsoft-com:datatypes""><Description dt:dt=""string"">E-Prime Primary Realtime Clock</Description><StartTime><Timestamp dt:dt=""int"">0</Timestamp><DateUtc dt:dt=""string"">2021-08-20T20:14:17Z</DateUtc></StartTime><FrequencyChanges><FrequencyChange><Frequency dt:dt=""r8"">3020390</Frequency><Timestamp dt:dt=""r8"">7347546218939</Timestamp><Current dt:dt=""r8"">0</Current><DateUtc dt:dt=""string"">2021-08-20T20:14:17Z</DateUtc></FrequencyChange></FrequencyChanges></Clock>\n"	000_R01_VB_allProc-118-1	60.001	1.0.0.232	1	-1142253473	Professional	2.0.10.356	2.0.10.356	08-20-2021	8/20/2021 8:14:17 PM	16:14:17	2.0.10.252	5	0	0	766107	20	766107	3999	-999999	934978	0	926104	0	Run1Proc	5	1	5	RunList	6	HighSmallED	8000	0	918104	0	918104	0	918104	0	B1HighSmallEDBlockProc	6.0	1.0	6.0	n/a	n/a	n/a	n/a	n/a	n/a	n/a	n/a	n/a	n/a	n/a	n/a	Run1BlockList	2	n/a	n/a	n/a	n/a	n/a	n/a	n/a	n/a	n/a	n/a	n/a	n/a	n/a	n/a	n/a	2.0	1.0	2.0	n/a	n/a	n/a	n/a	n/a	n/a	n/a	n/a	n/a	n/a	n/a	n/a	n/a	n/a	n/a	n/a	n/a	n/a	n/a	n/a	n/a	n/a	n/a	n/a	n/a	n/a	n/a	n/a	n/a	n/a	n/a	n/a	n/a	n/a	n/a	n/a	n/a	n/a	n/a	n/a	n/a	n/a	n/a	n/a	n/a	n/a	n/a	n/a	n/a	n/a	n/a	n/a	n/a	n/a	n/a	n/a	n/a	n/a	n/a	n/a	n/a	n/a	n/a	n/a	n/a	n/a	n/a	n/a	n/a	n/a	n/a	n/a	B1_02.jpg	500	0	905604	0	905604	0	TrialProc1	B1HighSmallEDBlockList	2500	0	903104	0	903104	0	903104	2500	d	1234	904338	136.998
140	2.5	000_R01_VB_allProc	118	1	"<?xml version=""1.0""?>\n<Clock xmlns:dt=""urn:schemas-microsoft-com:datatypes""><Description dt:dt=""string"">E-Prime Primary Realtime Clock</Description><StartTime><Timestamp dt:dt=""int"">0</Timestamp><DateUtc dt:dt=""string"">2021-08-20T20:14:17Z</DateUtc></StartTime><FrequencyChanges><FrequencyChange><Frequency dt:dt=""r8"">3020390</Frequency><Timestamp dt:dt=""r8"">7347546218939</Timestamp><Current dt:dt=""r8"">0</Current><DateUtc dt:dt=""string"">2021-08-20T20:14:17Z</DateUtc></FrequencyChange></FrequencyChanges></Clock>\n"	000_R01_VB_allProc-118-1	60.001	1.0.0.232	1	-1142253473	Professional	2.0.10.356	2.0.10.356	08-20-2021	8/20/2021 8:14:17 PM	16:14:17	2.0.10.252	5	0	0	766107	20	766107	3999	-999999	934978	0	926104	0	Run1Proc	5	1	5	RunList	6	HighSmallED	8000	0	918104	0	918104	0	918104	0	B1HighSmallEDBlockProc	6.0	1.0	6.0	n/a	n/a	n/a	n/a	n/a	n/a	n/a	n/a	n/a	n/a	n/a	n/a	Run1BlockList	3	n/a	n/a	n/a	n/a	n/a	n/a	n/a	n/a	n/a	n/a	n/a	n/a	n/a	n/a	n/a	3.0	1.0	3.0	n/a	n/a	n/a	n/a	n/a	n/a	n/a	n/a	n/a	n/a	n/a	n/a	n/a	n/a	n/a	n/a	n/a	n/a	n/a	n/a	n/a	n/a	n/a	n/a	n/a	n/a	n/a	n/a	n/a	n/a	n/a	n/a	n/a	n/a	n/a	n/a	n/a	n/a	n/a	n/a	n/a	n/a	n/a	n/a	n/a	n/a	n/a	n/a	n/a	n/a	n/a	n/a	n/a	n/a	n/a	n/a	n/a	n/a	n/a	n/a	n/a	n/a	n/a	n/a	n/a	n/a	n/a	n/a	n/a	n/a	n/a	n/a	B1_03.jpg	500	0	908604	0	908604	0	TrialProc1	B1HighSmallEDBlockList	2500	0	906104	0	906104	0	906104	2500	d	1698	907802	139.998
143	2.5	000_R01_VB_allProc	118	1	"<?xml version=""1.0""?>\n<Clock xmlns:dt=""urn:schemas-microsoft-com:datatypes""><Description dt:dt=""string"">E-Prime Primary Realtime Clock</Description><StartTime><Timestamp dt:dt=""int"">0</Timestamp><DateUtc dt:dt=""string"">2021-08-20T20:14:17Z</DateUtc></StartTime><FrequencyChanges><FrequencyChange><Frequency dt:dt=""r8"">3020390</Frequency><Timestamp dt:dt=""r8"">7347546218939</Timestamp><Current dt:dt=""r8"">0</Current><DateUtc dt:dt=""string"">2021-08-20T20:14:17Z</DateUtc></FrequencyChange></FrequencyChanges></Clock>\n"	000_R01_VB_allProc-118-1	60.001	1.0.0.232	1	-1142253473	Professional	2.0.10.356	2.0.10.356	08-20-2021	8/20/2021 8:14:17 PM	16:14:17	2.0.10.252	5	0	0	766107	20	766107	3999	-999999	934978	0	926104	0	Run1Proc	5	1	5	RunList	6	HighSmallED	8000	0	918104	0	918104	0	918104	0	B1HighSmallEDBlockProc	6.0	1.0	6.0	n/a	n/a	n/a	n/a	n/a	n/a	n/a	n/a	n/a	n/a	n/a	n/a	Run1BlockList	4	n/a	n/a	n/a	n/a	n/a	n/a	n/a	n/a	n/a	n/a	n/a	n/a	n/a	n/a	n/a	4.0	1.0	4.0	n/a	n/a	n/a	n/a	n/a	n/a	n/a	n/a	n/a	n/a	n/a	n/a	n/a	n/a	n/a	n/a	n/a	n/a	n/a	n/a	n/a	n/a	n/a	n/a	n/a	n/a	n/a	n/a	n/a	n/a	n/a	n/a	n/a	n/a	n/a	n/a	n/a	n/a	n/a	n/a	n/a	n/a	n/a	n/a	n/a	n/a	n/a	n/a	n/a	n/a	n/a	n/a	n/a	n/a	n/a	n/a	n/a	n/a	n/a	n/a	n/a	n/a	n/a	n/a	n/a	n/a	n/a	n/a	n/a	n/a	n/a	n/a	B1_04.jpg	500	0	911604	0	911604	0	TrialProc1	B1HighSmallEDBlockList	2500	0	909104	0	909104	0	909104	2500	c	1882	910986	142.998
146	2.5	000_R01_VB_allProc	118	1	"<?xml version=""1.0""?>\n<Clock xmlns:dt=""urn:schemas-microsoft-com:datatypes""><Description dt:dt=""string"">E-Prime Primary Realtime Clock</Description><StartTime><Timestamp dt:dt=""int"">0</Timestamp><DateUtc dt:dt=""string"">2021-08-20T20:14:17Z</DateUtc></StartTime><FrequencyChanges><FrequencyChange><Frequency dt:dt=""r8"">3020390</Frequency><Timestamp dt:dt=""r8"">7347546218939</Timestamp><Current dt:dt=""r8"">0</Current><DateUtc dt:dt=""string"">2021-08-20T20:14:17Z</DateUtc></FrequencyChange></FrequencyChanges></Clock>\n"	000_R01_VB_allProc-118-1	60.001	1.0.0.232	1	-1142253473	Professional	2.0.10.356	2.0.10.356	08-20-2021	8/20/2021 8:14:17 PM	16:14:17	2.0.10.252	5	0	0	766107	20	766107	3999	-999999	934978	0	926104	0	Run1Proc	5	1	5	RunList	6	HighSmallED	8000	0	918104	0	918104	0	918104	0	B1HighSmallEDBlockProc	6.0	1.0	6.0	n/a	n/a	n/a	n/a	n/a	n/a	n/a	n/a	n/a	n/a	n/a	n/a	Run1BlockList	5	n/a	n/a	n/a	n/a	n/a	n/a	n/a	n/a	n/a	n/a	n/a	n/a	n/a	n/a	n/a	5.0	1.0	5.0	n/a	n/a	n/a	n/a	n/a	n/a	n/a	n/a	n/a	n/a	n/a	n/a	n/a	n/a	n/a	n/a	n/a	n/a	n/a	n/a	n/a	n/a	n/a	n/a	n/a	n/a	n/a	n/a	n/a	n/a	n/a	n/a	n/a	n/a	n/a	n/a	n/a	n/a	n/a	n/a	n/a	n/a	n/a	n/a	n/a	n/a	n/a	n/a	n/a	n/a	n/a	n/a	n/a	n/a	n/a	n/a	n/a	n/a	n/a	n/a	n/a	n/a	n/a	n/a	n/a	n/a	n/a	n/a	n/a	n/a	n/a	n/a	B1_05.jpg	500	0	914604	0	914604	0	TrialProc1	B1HighSmallEDBlockList	2500	0	912104	0	912104	0	912104	2500	d	2162	914266	145.998
149	2.5	000_R01_VB_allProc	118	1	"<?xml version=""1.0""?>\n<Clock xmlns:dt=""urn:schemas-microsoft-com:datatypes""><Description dt:dt=""string"">E-Prime Primary Realtime Clock</Description><StartTime><Timestamp dt:dt=""int"">0</Timestamp><DateUtc dt:dt=""string"">2021-08-20T20:14:17Z</DateUtc></StartTime><FrequencyChanges><FrequencyChange><Frequency dt:dt=""r8"">3020390</Frequency><Timestamp dt:dt=""r8"">7347546218939</Timestamp><Current dt:dt=""r8"">0</Current><DateUtc dt:dt=""string"">2021-08-20T20:14:17Z</DateUtc></FrequencyChange></FrequencyChanges></Clock>\n"	000_R01_VB_allProc-118-1	60.001	1.0.0.232	1	-1142253473	Professional	2.0.10.356	2.0.10.356	08-20-2021	8/20/2021 8:14:17 PM	16:14:17	2.0.10.252	5	0	0	766107	20	766107	3999	-999999	934978	0	926104	0	Run1Proc	5	1	5	RunList	6	HighSmallED	8000	0	918104	0	918104	0	918104	0	B1HighSmallEDBlockProc	6.0	1.0	6.0	n/a	n/a	n/a	n/a	n/a	n/a	n/a	n/a	n/a	n/a	n/a	n/a	Run1BlockList	6	n/a	n/a	n/a	n/a	n/a	n/a	n/a	n/a	n/a	n/a	n/a	n/a	n/a	n/a	n/a	6.0	1.0	6.0	n/a	n/a	n/a	n/a	n/a	n/a	n/a	n/a	n/a	n/a	n/a	n/a	n/a	n/a	n/a	n/a	n/a	n/a	n/a	n/a	n/a	n/a	n/a	n/a	n/a	n/a	n/a	n/a	n/a	n/a	n/a	n/a	n/a	n/a	n/a	n/a	n/a	n/a	n/a	n/a	n/a	n/a	n/a	n/a	n/a	n/a	n/a	n/a	n/a	n/a	n/a	n/a	n/a	n/a	n/a	n/a	n/a	n/a	n/a	n/a	n/a	n/a	n/a	n/a	n/a	n/a	n/a	n/a	n/a	n/a	n/a	n/a	B1_06.jpg	500	0	917604	0	917604	0	TrialProc1	B1HighSmallEDBlockList	2500	0	915104	0	915104	0	915104	2500	d	1202	916306	148.998
