onset	duration	experiment_name	sub	ses	clock_information	datafile_basename	display_refreshrate	experiment_version	group	randomseed	runtime_capabilities	runtime_version	runtimeversionexpected	session_date	session_start_date_time_utc	session_time	studio_version	block	fixation2trs_durationerror	fixation2trs_offsetdelay	fixation2trs_offsettime	fixation2trs_onsetdelay	fixation2trs_onsettime	fixation2trs_onsettoonsettime	goodwork_durationerror	goodwork_finishtime	goodwork_onsetdelay	goodwork_onsettime	goodwork_onsettoonsettime	procedure_block	runlist	runlist_cycle	runlist_sample	running_block	trial	condition	interblockinterval_duration	interblockinterval_durationerror	interblockinterval_finishtime	interblockinterval_offsetdelay	interblockinterval_offsettime	interblockinterval_onsetdelay	interblockinterval_onsettime	interblockinterval_onsettoonsettime	procedure_trial	run1blocklist	run1blocklist_cycle	run1blocklist_sample	run2blocklist	run2blocklist_cycle	run2blocklist_sample	run3blocklist	run3blocklist_cycle	run3blocklist_sample	run4blocklist	run4blocklist_cycle	run4blocklist_sample	run5blocklist	run5blocklist_cycle	run5blocklist_sample	running_trial	subtrial	a1highlargeedblocklist	a1highlargeedblocklist_cycle	a1highlargeedblocklist_sample	a2highlargeedblocklist	a2highlargeedblocklist_cycle	a2highlargeedblocklist_sample	a3highlargeedblocklist	a3highlargeedblocklist_cycle	a3highlargeedblocklist_sample	a4highlargeedblocklist	a4highlargeedblocklist_cycle	a4highlargeedblocklist_sample	a5highlargeedblocklist	a5highlargeedblocklist_cycle	a5highlargeedblocklist_sample	b1highsmalledblocklist	b1highsmalledblocklist_cycle	b1highsmalledblocklist_sample	b2highsmalledblocklist	b2highsmalledblocklist_cycle	b2highsmalledblocklist_sample	b3highsmalledblocklist	b3highsmalledblocklist_cycle	b3highsmalledblocklist_sample	b4highsmalledblocklist	b4highsmalledblocklist_cycle	b4highsmalledblocklist_sample	b5highsmalledblocklist	b5highsmalledblocklist_cycle	b5highsmalledblocklist_sample	c1lowlargeedblocklist	c1lowlargeedblocklist_cycle	c1lowlargeedblocklist_sample	c2lowlargeedblocklist	c2lowlargeedblocklist_cycle	c2lowlargeedblocklist_sample	c3lowlargeedblocklist	c3lowlargeedblocklist_cycle	c3lowlargeedblocklist_sample	c4lowlargeedblocklist	c4lowlargeedblocklist_cycle	c4lowlargeedblocklist_sample	c5lowlargeedblocklist	c5lowlargeedblocklist_cycle	c5lowlargeedblocklist_sample	d1lowsmalledblocklist	d1lowsmalledblocklist_cycle	d1lowsmalledblocklist_sample	d2highlargeedblocklist	d2highlargeedblocklist_cycle	d2highlargeedblocklist_sample	d3lowsmalledblocklist	d3lowsmalledblocklist_cycle	d3lowsmalledblocklist_sample	d4lowsmalledblocklist	d4lowsmalledblocklist_cycle	d4lowsmalledblocklist_sample	d5lowsmalledblocklist	d5lowsmalledblocklist_cycle	d5lowsmalledblocklist_sample	e1officelargeblocklist	e1officelargeblocklist_cycle	e1officelargeblocklist_sample	e2officelargeblocklist	e2officelargeblocklist_cycle	e2officelargeblocklist_sample	e3officelargeblocklist	e3officelargeblocklist_cycle	e3officelargeblocklist_sample	e4officelargeblocklist	e4officelargeblocklist_cycle	e4officelargeblocklist_sample	e5officelargeblocklist	e5officelargeblocklist_cycle	e5officelargeblocklist_sample	f1officesmallblocklist	f1officesmallblocklist_cycle	f1officesmallblocklist_sample	f2officesmallblocklist	f2officesmallblocklist_cycle	f2officesmallblocklist_sample	f3officesmallblocklist	f3officesmallblocklist_cycle	f3officesmallblocklist_sample	f4officesmallblocklist	f4officesmallblocklist_cycle	f4officesmallblocklist_sample	f5officesmallblocklist	f5officesmallblocklist_cycle	f5officesmallblocklist_sample	filename	isi_duration	isi_durationerror	isi_finishtime	isi_onsetdelay	isi_onsettime	isi_onsettoonsettime	procedure_subtrial	running_subtrial	stimslide_duration	stimslide_durationerror	stimslide_finishtime	stimslide_offsetdelay	stimslide_offsettime	stimslide_onsetdelay	stimslide_onsettime	stimslide_onsettoonsettime	stimslide_resp	stimslide_rt	stimslide_rttime	onset_unrounded
4	2.5	000_R01_VA_allProc	55	1	"<?xml version=""1.0""?>\n<Clock xmlns:dt=""urn:schemas-microsoft-com:datatypes""><Description dt:dt=""string"">E-Prime Primary Realtime Clock</Description><StartTime><Timestamp dt:dt=""int"">0</Timestamp><DateUtc dt:dt=""string"">2019-03-12T21:13:27Z</DateUtc></StartTime><FrequencyChanges><FrequencyChange><Frequency dt:dt=""r8"">3020419</Frequency><Timestamp dt:dt=""r8"">64589161874</Timestamp><Current dt:dt=""r8"">0</Current><DateUtc dt:dt=""string"">2019-03-12T21:13:27Z</DateUtc></FrequencyChange></FrequencyChanges></Clock>\n"	000_R01_VA_allProc-55-1	60.023	1.0.0.183	1	165230316	Professional	2.0.10.356	2.0.10.356	03-12-2019	3/12/2019 9:13:27 PM	17:13:27	2.0.10.252	3	0	0	618826	8	618826	3999	-999999	853710	-3	779000	0	Run4Proc	3	1	3	RunList	1	OfficeSmall	8000	0	640818	0	640818	0	640818	0	F4OfficeSmallBlockProc	n/a	n/a	n/a	n/a	n/a	n/a	n/a	n/a	n/a	1.0	1.0	1.0	n/a	n/a	n/a	Run4BlockList	1	n/a	n/a	n/a	n/a	n/a	n/a	n/a	n/a	n/a	n/a	n/a	n/a	n/a	n/a	n/a	n/a	n/a	n/a	n/a	n/a	n/a	n/a	n/a	n/a	n/a	n/a	n/a	n/a	n/a	n/a	n/a	n/a	n/a	n/a	n/a	n/a	n/a	n/a	n/a	n/a	n/a	n/a	n/a	n/a	n/a	n/a	n/a	n/a	n/a	n/a	n/a	n/a	n/a	n/a	n/a	n/a	n/a	n/a	n/a	n/a	n/a	n/a	n/a	n/a	n/a	n/a	n/a	n/a	n/a	n/a	n/a	n/a	n/a	n/a	n/a	n/a	n/a	n/a	n/a	n/a	n/a	n/a	n/a	n/a	1.0	1.0	1.0	n/a	n/a	n/a	F4_01.jpg	500	0	625324	-1	625324	0	TrialProc1	F4OfficeSmallBlockList	2500	0	622825	0	622825	-1	622825	2499	c	1427	624252	4.0
7	2.5	000_R01_VA_allProc	55	1	"<?xml version=""1.0""?>\n<Clock xmlns:dt=""urn:schemas-microsoft-com:datatypes""><Description dt:dt=""string"">E-Prime Primary Realtime Clock</Description><StartTime><Timestamp dt:dt=""int"">0</Timestamp><DateUtc dt:dt=""string"">2019-03-12T21:13:27Z</DateUtc></StartTime><FrequencyChanges><FrequencyChange><Frequency dt:dt=""r8"">3020419</Frequency><Timestamp dt:dt=""r8"">64589161874</Timestamp><Current dt:dt=""r8"">0</Current><DateUtc dt:dt=""string"">2019-03-12T21:13:27Z</DateUtc></FrequencyChange></FrequencyChanges></Clock>\n"	000_R01_VA_allProc-55-1	60.023	1.0.0.183	1	165230316	Professional	2.0.10.356	2.0.10.356	03-12-2019	3/12/2019 9:13:27 PM	17:13:27	2.0.10.252	3	0	0	618826	8	618826	3999	-999999	853710	-3	779000	0	Run4Proc	3	1	3	RunList	1	OfficeSmall	8000	0	640818	0	640818	0	640818	0	F4OfficeSmallBlockProc	n/a	n/a	n/a	n/a	n/a	n/a	n/a	n/a	n/a	1.0	1.0	1.0	n/a	n/a	n/a	Run4BlockList	2	n/a	n/a	n/a	n/a	n/a	n/a	n/a	n/a	n/a	n/a	n/a	n/a	n/a	n/a	n/a	n/a	n/a	n/a	n/a	n/a	n/a	n/a	n/a	n/a	n/a	n/a	n/a	n/a	n/a	n/a	n/a	n/a	n/a	n/a	n/a	n/a	n/a	n/a	n/a	n/a	n/a	n/a	n/a	n/a	n/a	n/a	n/a	n/a	n/a	n/a	n/a	n/a	n/a	n/a	n/a	n/a	n/a	n/a	n/a	n/a	n/a	n/a	n/a	n/a	n/a	n/a	n/a	n/a	n/a	n/a	n/a	n/a	n/a	n/a	n/a	n/a	n/a	n/a	n/a	n/a	n/a	n/a	n/a	n/a	2.0	1.0	2.0	n/a	n/a	n/a	F4_02.jpg	500	0	628323	-1	628323	0	TrialProc1	F4OfficeSmallBlockList	2500	0	625824	0	625824	0	625824	2499	d	1052	626876	6.9990000000000006
10	2.5	000_R01_VA_allProc	55	1	"<?xml version=""1.0""?>\n<Clock xmlns:dt=""urn:schemas-microsoft-com:datatypes""><Description dt:dt=""string"">E-Prime Primary Realtime Clock</Description><StartTime><Timestamp dt:dt=""int"">0</Timestamp><DateUtc dt:dt=""string"">2019-03-12T21:13:27Z</DateUtc></StartTime><FrequencyChanges><FrequencyChange><Frequency dt:dt=""r8"">3020419</Frequency><Timestamp dt:dt=""r8"">64589161874</Timestamp><Current dt:dt=""r8"">0</Current><DateUtc dt:dt=""string"">2019-03-12T21:13:27Z</DateUtc></FrequencyChange></FrequencyChanges></Clock>\n"	000_R01_VA_allProc-55-1	60.023	1.0.0.183	1	165230316	Professional	2.0.10.356	2.0.10.356	03-12-2019	3/12/2019 9:13:27 PM	17:13:27	2.0.10.252	3	0	0	618826	8	618826	3999	-999999	853710	-3	779000	0	Run4Proc	3	1	3	RunList	1	OfficeSmall	8000	0	640818	0	640818	0	640818	0	F4OfficeSmallBlockProc	n/a	n/a	n/a	n/a	n/a	n/a	n/a	n/a	n/a	1.0	1.0	1.0	n/a	n/a	n/a	Run4BlockList	3	n/a	n/a	n/a	n/a	n/a	n/a	n/a	n/a	n/a	n/a	n/a	n/a	n/a	n/a	n/a	n/a	n/a	n/a	n/a	n/a	n/a	n/a	n/a	n/a	n/a	n/a	n/a	n/a	n/a	n/a	n/a	n/a	n/a	n/a	n/a	n/a	n/a	n/a	n/a	n/a	n/a	n/a	n/a	n/a	n/a	n/a	n/a	n/a	n/a	n/a	n/a	n/a	n/a	n/a	n/a	n/a	n/a	n/a	n/a	n/a	n/a	n/a	n/a	n/a	n/a	n/a	n/a	n/a	n/a	n/a	n/a	n/a	n/a	n/a	n/a	n/a	n/a	n/a	n/a	n/a	n/a	n/a	n/a	n/a	3.0	1.0	3.0	n/a	n/a	n/a	F4_03.jpg	500	0	631322	-1	631322	0	TrialProc1	F4OfficeSmallBlockList	2500	0	628823	0	628823	0	628823	2499	c	1189	630012	9.998000000000001
13	2.5	000_R01_VA_allProc	55	1	"<?xml version=""1.0""?>\n<Clock xmlns:dt=""urn:schemas-microsoft-com:datatypes""><Description dt:dt=""string"">E-Prime Primary Realtime Clock</Description><StartTime><Timestamp dt:dt=""int"">0</Timestamp><DateUtc dt:dt=""string"">2019-03-12T21:13:27Z</DateUtc></StartTime><FrequencyChanges><FrequencyChange><Frequency dt:dt=""r8"">3020419</Frequency><Timestamp dt:dt=""r8"">64589161874</Timestamp><Current dt:dt=""r8"">0</Current><DateUtc dt:dt=""string"">2019-03-12T21:13:27Z</DateUtc></FrequencyChange></FrequencyChanges></Clock>\n"	000_R01_VA_allProc-55-1	60.023	1.0.0.183	1	165230316	Professional	2.0.10.356	2.0.10.356	03-12-2019	3/12/2019 9:13:27 PM	17:13:27	2.0.10.252	3	0	0	618826	8	618826	3999	-999999	853710	-3	779000	0	Run4Proc	3	1	3	RunList	1	OfficeSmall	8000	0	640818	0	640818	0	640818	0	F4OfficeSmallBlockProc	n/a	n/a	n/a	n/a	n/a	n/a	n/a	n/a	n/a	1.0	1.0	1.0	n/a	n/a	n/a	Run4BlockList	4	n/a	n/a	n/a	n/a	n/a	n/a	n/a	n/a	n/a	n/a	n/a	n/a	n/a	n/a	n/a	n/a	n/a	n/a	n/a	n/a	n/a	n/a	n/a	n/a	n/a	n/a	n/a	n/a	n/a	n/a	n/a	n/a	n/a	n/a	n/a	n/a	n/a	n/a	n/a	n/a	n/a	n/a	n/a	n/a	n/a	n/a	n/a	n/a	n/a	n/a	n/a	n/a	n/a	n/a	n/a	n/a	n/a	n/a	n/a	n/a	n/a	n/a	n/a	n/a	n/a	n/a	n/a	n/a	n/a	n/a	n/a	n/a	n/a	n/a	n/a	n/a	n/a	n/a	n/a	n/a	n/a	n/a	n/a	n/a	4.0	1.0	4.0	n/a	n/a	n/a	F4_04.jpg	500	0	634321	0	634321	0	TrialProc1	F4OfficeSmallBlockList	2500	1	631822	1	631822	-1	631821	2500	c	1079	632900	12.996
16	2.5	000_R01_VA_allProc	55	1	"<?xml version=""1.0""?>\n<Clock xmlns:dt=""urn:schemas-microsoft-com:datatypes""><Description dt:dt=""string"">E-Prime Primary Realtime Clock</Description><StartTime><Timestamp dt:dt=""int"">0</Timestamp><DateUtc dt:dt=""string"">2019-03-12T21:13:27Z</DateUtc></StartTime><FrequencyChanges><FrequencyChange><Frequency dt:dt=""r8"">3020419</Frequency><Timestamp dt:dt=""r8"">64589161874</Timestamp><Current dt:dt=""r8"">0</Current><DateUtc dt:dt=""string"">2019-03-12T21:13:27Z</DateUtc></FrequencyChange></FrequencyChanges></Clock>\n"	000_R01_VA_allProc-55-1	60.023	1.0.0.183	1	165230316	Professional	2.0.10.356	2.0.10.356	03-12-2019	3/12/2019 9:13:27 PM	17:13:27	2.0.10.252	3	0	0	618826	8	618826	3999	-999999	853710	-3	779000	0	Run4Proc	3	1	3	RunList	1	OfficeSmall	8000	0	640818	0	640818	0	640818	0	F4OfficeSmallBlockProc	n/a	n/a	n/a	n/a	n/a	n/a	n/a	n/a	n/a	1.0	1.0	1.0	n/a	n/a	n/a	Run4BlockList	5	n/a	n/a	n/a	n/a	n/a	n/a	n/a	n/a	n/a	n/a	n/a	n/a	n/a	n/a	n/a	n/a	n/a	n/a	n/a	n/a	n/a	n/a	n/a	n/a	n/a	n/a	n/a	n/a	n/a	n/a	n/a	n/a	n/a	n/a	n/a	n/a	n/a	n/a	n/a	n/a	n/a	n/a	n/a	n/a	n/a	n/a	n/a	n/a	n/a	n/a	n/a	n/a	n/a	n/a	n/a	n/a	n/a	n/a	n/a	n/a	n/a	n/a	n/a	n/a	n/a	n/a	n/a	n/a	n/a	n/a	n/a	n/a	n/a	n/a	n/a	n/a	n/a	n/a	n/a	n/a	n/a	n/a	n/a	n/a	5.0	1.0	5.0	n/a	n/a	n/a	F4_05.jpg	500	0	637319	-1	637319	0	TrialProc1	F4OfficeSmallBlockList	2500	0	634820	0	634820	-1	634820	2499	c	1440	636260	15.995
19	2.5	000_R01_VA_allProc	55	1	"<?xml version=""1.0""?>\n<Clock xmlns:dt=""urn:schemas-microsoft-com:datatypes""><Description dt:dt=""string"">E-Prime Primary Realtime Clock</Description><StartTime><Timestamp dt:dt=""int"">0</Timestamp><DateUtc dt:dt=""string"">2019-03-12T21:13:27Z</DateUtc></StartTime><FrequencyChanges><FrequencyChange><Frequency dt:dt=""r8"">3020419</Frequency><Timestamp dt:dt=""r8"">64589161874</Timestamp><Current dt:dt=""r8"">0</Current><DateUtc dt:dt=""string"">2019-03-12T21:13:27Z</DateUtc></FrequencyChange></FrequencyChanges></Clock>\n"	000_R01_VA_allProc-55-1	60.023	1.0.0.183	1	165230316	Professional	2.0.10.356	2.0.10.356	03-12-2019	3/12/2019 9:13:27 PM	17:13:27	2.0.10.252	3	0	0	618826	8	618826	3999	-999999	853710	-3	779000	0	Run4Proc	3	1	3	RunList	1	OfficeSmall	8000	0	640818	0	640818	0	640818	0	F4OfficeSmallBlockProc	n/a	n/a	n/a	n/a	n/a	n/a	n/a	n/a	n/a	1.0	1.0	1.0	n/a	n/a	n/a	Run4BlockList	6	n/a	n/a	n/a	n/a	n/a	n/a	n/a	n/a	n/a	n/a	n/a	n/a	n/a	n/a	n/a	n/a	n/a	n/a	n/a	n/a	n/a	n/a	n/a	n/a	n/a	n/a	n/a	n/a	n/a	n/a	n/a	n/a	n/a	n/a	n/a	n/a	n/a	n/a	n/a	n/a	n/a	n/a	n/a	n/a	n/a	n/a	n/a	n/a	n/a	n/a	n/a	n/a	n/a	n/a	n/a	n/a	n/a	n/a	n/a	n/a	n/a	n/a	n/a	n/a	n/a	n/a	n/a	n/a	n/a	n/a	n/a	n/a	n/a	n/a	n/a	n/a	n/a	n/a	n/a	n/a	n/a	n/a	n/a	n/a	6.0	1.0	6.0	n/a	n/a	n/a	F4_06.jpg	500	0	640318	-1	640318	0	TrialProc1	F4OfficeSmallBlockList	2500	0	637819	0	637819	0	637819	2499	d	937	638756	18.994
30	2.5	000_R01_VA_allProc	55	1	"<?xml version=""1.0""?>\n<Clock xmlns:dt=""urn:schemas-microsoft-com:datatypes""><Description dt:dt=""string"">E-Prime Primary Realtime Clock</Description><StartTime><Timestamp dt:dt=""int"">0</Timestamp><DateUtc dt:dt=""string"">2019-03-12T21:13:27Z</DateUtc></StartTime><FrequencyChanges><FrequencyChange><Frequency dt:dt=""r8"">3020419</Frequency><Timestamp dt:dt=""r8"">64589161874</Timestamp><Current dt:dt=""r8"">0</Current><DateUtc dt:dt=""string"">2019-03-12T21:13:27Z</DateUtc></FrequencyChange></FrequencyChanges></Clock>\n"	000_R01_VA_allProc-55-1	60.023	1.0.0.183	1	165230316	Professional	2.0.10.356	2.0.10.356	03-12-2019	3/12/2019 9:13:27 PM	17:13:27	2.0.10.252	3	0	0	618826	8	618826	3999	-999999	853710	-3	779000	0	Run4Proc	3	1	3	RunList	2	HighSmallED	8000	0	666808	0	666808	-1	666808	0	B4HighSmallEDBlockProc	n/a	n/a	n/a	n/a	n/a	n/a	n/a	n/a	n/a	2.0	1.0	2.0	n/a	n/a	n/a	Run4BlockList	1	n/a	n/a	n/a	n/a	n/a	n/a	n/a	n/a	n/a	n/a	n/a	n/a	n/a	n/a	n/a	n/a	n/a	n/a	n/a	n/a	n/a	n/a	n/a	n/a	1.0	1.0	1.0	n/a	n/a	n/a	n/a	n/a	n/a	n/a	n/a	n/a	n/a	n/a	n/a	n/a	n/a	n/a	n/a	n/a	n/a	n/a	n/a	n/a	n/a	n/a	n/a	n/a	n/a	n/a	n/a	n/a	n/a	n/a	n/a	n/a	n/a	n/a	n/a	n/a	n/a	n/a	n/a	n/a	n/a	n/a	n/a	n/a	n/a	n/a	n/a	n/a	n/a	n/a	n/a	n/a	n/a	n/a	n/a	n/a	n/a	n/a	n/a	n/a	n/a	n/a	B4_01.jpg	500	0	651314	-1	651314	0	TrialProc1	B4HighSmallEDBlockList	2500	0	648815	0	648815	-3	648815	2499	d	1917	650732	29.99
33	2.5	000_R01_VA_allProc	55	1	"<?xml version=""1.0""?>\n<Clock xmlns:dt=""urn:schemas-microsoft-com:datatypes""><Description dt:dt=""string"">E-Prime Primary Realtime Clock</Description><StartTime><Timestamp dt:dt=""int"">0</Timestamp><DateUtc dt:dt=""string"">2019-03-12T21:13:27Z</DateUtc></StartTime><FrequencyChanges><FrequencyChange><Frequency dt:dt=""r8"">3020419</Frequency><Timestamp dt:dt=""r8"">64589161874</Timestamp><Current dt:dt=""r8"">0</Current><DateUtc dt:dt=""string"">2019-03-12T21:13:27Z</DateUtc></FrequencyChange></FrequencyChanges></Clock>\n"	000_R01_VA_allProc-55-1	60.023	1.0.0.183	1	165230316	Professional	2.0.10.356	2.0.10.356	03-12-2019	3/12/2019 9:13:27 PM	17:13:27	2.0.10.252	3	0	0	618826	8	618826	3999	-999999	853710	-3	779000	0	Run4Proc	3	1	3	RunList	2	HighSmallED	8000	0	666808	0	666808	-1	666808	0	B4HighSmallEDBlockProc	n/a	n/a	n/a	n/a	n/a	n/a	n/a	n/a	n/a	2.0	1.0	2.0	n/a	n/a	n/a	Run4BlockList	2	n/a	n/a	n/a	n/a	n/a	n/a	n/a	n/a	n/a	n/a	n/a	n/a	n/a	n/a	n/a	n/a	n/a	n/a	n/a	n/a	n/a	n/a	n/a	n/a	2.0	1.0	2.0	n/a	n/a	n/a	n/a	n/a	n/a	n/a	n/a	n/a	n/a	n/a	n/a	n/a	n/a	n/a	n/a	n/a	n/a	n/a	n/a	n/a	n/a	n/a	n/a	n/a	n/a	n/a	n/a	n/a	n/a	n/a	n/a	n/a	n/a	n/a	n/a	n/a	n/a	n/a	n/a	n/a	n/a	n/a	n/a	n/a	n/a	n/a	n/a	n/a	n/a	n/a	n/a	n/a	n/a	n/a	n/a	n/a	n/a	n/a	n/a	n/a	n/a	n/a	B4_02.jpg	500	0	654313	-1	654313	0	TrialProc1	B4HighSmallEDBlockList	2500	0	651814	0	651814	0	651814	2499	d	861	652675	32.989000000000004
36	2.5	000_R01_VA_allProc	55	1	"<?xml version=""1.0""?>\n<Clock xmlns:dt=""urn:schemas-microsoft-com:datatypes""><Description dt:dt=""string"">E-Prime Primary Realtime Clock</Description><StartTime><Timestamp dt:dt=""int"">0</Timestamp><DateUtc dt:dt=""string"">2019-03-12T21:13:27Z</DateUtc></StartTime><FrequencyChanges><FrequencyChange><Frequency dt:dt=""r8"">3020419</Frequency><Timestamp dt:dt=""r8"">64589161874</Timestamp><Current dt:dt=""r8"">0</Current><DateUtc dt:dt=""string"">2019-03-12T21:13:27Z</DateUtc></FrequencyChange></FrequencyChanges></Clock>\n"	000_R01_VA_allProc-55-1	60.023	1.0.0.183	1	165230316	Professional	2.0.10.356	2.0.10.356	03-12-2019	3/12/2019 9:13:27 PM	17:13:27	2.0.10.252	3	0	0	618826	8	618826	3999	-999999	853710	-3	779000	0	Run4Proc	3	1	3	RunList	2	HighSmallED	8000	0	666808	0	666808	-1	666808	0	B4HighSmallEDBlockProc	n/a	n/a	n/a	n/a	n/a	n/a	n/a	n/a	n/a	2.0	1.0	2.0	n/a	n/a	n/a	Run4BlockList	3	n/a	n/a	n/a	n/a	n/a	n/a	n/a	n/a	n/a	n/a	n/a	n/a	n/a	n/a	n/a	n/a	n/a	n/a	n/a	n/a	n/a	n/a	n/a	n/a	3.0	1.0	3.0	n/a	n/a	n/a	n/a	n/a	n/a	n/a	n/a	n/a	n/a	n/a	n/a	n/a	n/a	n/a	n/a	n/a	n/a	n/a	n/a	n/a	n/a	n/a	n/a	n/a	n/a	n/a	n/a	n/a	n/a	n/a	n/a	n/a	n/a	n/a	n/a	n/a	n/a	n/a	n/a	n/a	n/a	n/a	n/a	n/a	n/a	n/a	n/a	n/a	n/a	n/a	n/a	n/a	n/a	n/a	n/a	n/a	n/a	n/a	n/a	n/a	n/a	n/a	B4_03.jpg	500	0	657312	-1	657312	0	TrialProc1	B4HighSmallEDBlockList	2500	0	654813	0	654813	0	654813	2499	d	510	655323	35.988
39	2.5	000_R01_VA_allProc	55	1	"<?xml version=""1.0""?>\n<Clock xmlns:dt=""urn:schemas-microsoft-com:datatypes""><Description dt:dt=""string"">E-Prime Primary Realtime Clock</Description><StartTime><Timestamp dt:dt=""int"">0</Timestamp><DateUtc dt:dt=""string"">2019-03-12T21:13:27Z</DateUtc></StartTime><FrequencyChanges><FrequencyChange><Frequency dt:dt=""r8"">3020419</Frequency><Timestamp dt:dt=""r8"">64589161874</Timestamp><Current dt:dt=""r8"">0</Current><DateUtc dt:dt=""string"">2019-03-12T21:13:27Z</DateUtc></FrequencyChange></FrequencyChanges></Clock>\n"	000_R01_VA_allProc-55-1	60.023	1.0.0.183	1	165230316	Professional	2.0.10.356	2.0.10.356	03-12-2019	3/12/2019 9:13:27 PM	17:13:27	2.0.10.252	3	0	0	618826	8	618826	3999	-999999	853710	-3	779000	0	Run4Proc	3	1	3	RunList	2	HighSmallED	8000	0	666808	0	666808	-1	666808	0	B4HighSmallEDBlockProc	n/a	n/a	n/a	n/a	n/a	n/a	n/a	n/a	n/a	2.0	1.0	2.0	n/a	n/a	n/a	Run4BlockList	4	n/a	n/a	n/a	n/a	n/a	n/a	n/a	n/a	n/a	n/a	n/a	n/a	n/a	n/a	n/a	n/a	n/a	n/a	n/a	n/a	n/a	n/a	n/a	n/a	4.0	1.0	4.0	n/a	n/a	n/a	n/a	n/a	n/a	n/a	n/a	n/a	n/a	n/a	n/a	n/a	n/a	n/a	n/a	n/a	n/a	n/a	n/a	n/a	n/a	n/a	n/a	n/a	n/a	n/a	n/a	n/a	n/a	n/a	n/a	n/a	n/a	n/a	n/a	n/a	n/a	n/a	n/a	n/a	n/a	n/a	n/a	n/a	n/a	n/a	n/a	n/a	n/a	n/a	n/a	n/a	n/a	n/a	n/a	n/a	n/a	n/a	n/a	n/a	n/a	n/a	B4_04.jpg	500	0	660311	-1	660311	0	TrialProc1	B4HighSmallEDBlockList	2500	0	657812	0	657812	0	657812	2499	d	583	658395	38.987
42	2.5	000_R01_VA_allProc	55	1	"<?xml version=""1.0""?>\n<Clock xmlns:dt=""urn:schemas-microsoft-com:datatypes""><Description dt:dt=""string"">E-Prime Primary Realtime Clock</Description><StartTime><Timestamp dt:dt=""int"">0</Timestamp><DateUtc dt:dt=""string"">2019-03-12T21:13:27Z</DateUtc></StartTime><FrequencyChanges><FrequencyChange><Frequency dt:dt=""r8"">3020419</Frequency><Timestamp dt:dt=""r8"">64589161874</Timestamp><Current dt:dt=""r8"">0</Current><DateUtc dt:dt=""string"">2019-03-12T21:13:27Z</DateUtc></FrequencyChange></FrequencyChanges></Clock>\n"	000_R01_VA_allProc-55-1	60.023	1.0.0.183	1	165230316	Professional	2.0.10.356	2.0.10.356	03-12-2019	3/12/2019 9:13:27 PM	17:13:27	2.0.10.252	3	0	0	618826	8	618826	3999	-999999	853710	-3	779000	0	Run4Proc	3	1	3	RunList	2	HighSmallED	8000	0	666808	0	666808	-1	666808	0	B4HighSmallEDBlockProc	n/a	n/a	n/a	n/a	n/a	n/a	n/a	n/a	n/a	2.0	1.0	2.0	n/a	n/a	n/a	Run4BlockList	5	n/a	n/a	n/a	n/a	n/a	n/a	n/a	n/a	n/a	n/a	n/a	n/a	n/a	n/a	n/a	n/a	n/a	n/a	n/a	n/a	n/a	n/a	n/a	n/a	5.0	1.0	5.0	n/a	n/a	n/a	n/a	n/a	n/a	n/a	n/a	n/a	n/a	n/a	n/a	n/a	n/a	n/a	n/a	n/a	n/a	n/a	n/a	n/a	n/a	n/a	n/a	n/a	n/a	n/a	n/a	n/a	n/a	n/a	n/a	n/a	n/a	n/a	n/a	n/a	n/a	n/a	n/a	n/a	n/a	n/a	n/a	n/a	n/a	n/a	n/a	n/a	n/a	n/a	n/a	n/a	n/a	n/a	n/a	n/a	n/a	n/a	n/a	n/a	n/a	n/a	B4_05.jpg	500	0	663310	-1	663310	0	TrialProc1	B4HighSmallEDBlockList	2500	0	660811	0	660811	0	660811	2499	d	552	661363	41.986
45	2.5	000_R01_VA_allProc	55	1	"<?xml version=""1.0""?>\n<Clock xmlns:dt=""urn:schemas-microsoft-com:datatypes""><Description dt:dt=""string"">E-Prime Primary Realtime Clock</Description><StartTime><Timestamp dt:dt=""int"">0</Timestamp><DateUtc dt:dt=""string"">2019-03-12T21:13:27Z</DateUtc></StartTime><FrequencyChanges><FrequencyChange><Frequency dt:dt=""r8"">3020419</Frequency><Timestamp dt:dt=""r8"">64589161874</Timestamp><Current dt:dt=""r8"">0</Current><DateUtc dt:dt=""string"">2019-03-12T21:13:27Z</DateUtc></FrequencyChange></FrequencyChanges></Clock>\n"	000_R01_VA_allProc-55-1	60.023	1.0.0.183	1	165230316	Professional	2.0.10.356	2.0.10.356	03-12-2019	3/12/2019 9:13:27 PM	17:13:27	2.0.10.252	3	0	0	618826	8	618826	3999	-999999	853710	-3	779000	0	Run4Proc	3	1	3	RunList	2	HighSmallED	8000	0	666808	0	666808	-1	666808	0	B4HighSmallEDBlockProc	n/a	n/a	n/a	n/a	n/a	n/a	n/a	n/a	n/a	2.0	1.0	2.0	n/a	n/a	n/a	Run4BlockList	6	n/a	n/a	n/a	n/a	n/a	n/a	n/a	n/a	n/a	n/a	n/a	n/a	n/a	n/a	n/a	n/a	n/a	n/a	n/a	n/a	n/a	n/a	n/a	n/a	6.0	1.0	6.0	n/a	n/a	n/a	n/a	n/a	n/a	n/a	n/a	n/a	n/a	n/a	n/a	n/a	n/a	n/a	n/a	n/a	n/a	n/a	n/a	n/a	n/a	n/a	n/a	n/a	n/a	n/a	n/a	n/a	n/a	n/a	n/a	n/a	n/a	n/a	n/a	n/a	n/a	n/a	n/a	n/a	n/a	n/a	n/a	n/a	n/a	n/a	n/a	n/a	n/a	n/a	n/a	n/a	n/a	n/a	n/a	n/a	n/a	n/a	n/a	n/a	n/a	n/a	B4_06.jpg	500	0	666309	0	666309	0	TrialProc1	B4HighSmallEDBlockList	2500	1	663810	1	663810	-1	663809	2500	d	714	664523	44.984
56	2.5	000_R01_VA_allProc	55	1	"<?xml version=""1.0""?>\n<Clock xmlns:dt=""urn:schemas-microsoft-com:datatypes""><Description dt:dt=""string"">E-Prime Primary Realtime Clock</Description><StartTime><Timestamp dt:dt=""int"">0</Timestamp><DateUtc dt:dt=""string"">2019-03-12T21:13:27Z</DateUtc></StartTime><FrequencyChanges><FrequencyChange><Frequency dt:dt=""r8"">3020419</Frequency><Timestamp dt:dt=""r8"">64589161874</Timestamp><Current dt:dt=""r8"">0</Current><DateUtc dt:dt=""string"">2019-03-12T21:13:27Z</DateUtc></FrequencyChange></FrequencyChanges></Clock>\n"	000_R01_VA_allProc-55-1	60.023	1.0.0.183	1	165230316	Professional	2.0.10.356	2.0.10.356	03-12-2019	3/12/2019 9:13:27 PM	17:13:27	2.0.10.252	3	0	0	618826	8	618826	3999	-999999	853710	-3	779000	0	Run4Proc	3	1	3	RunList	3	LowLargeED	8000	0	692799	0	692799	0	692799	0	C4LowLargeEDBlockProc	n/a	n/a	n/a	n/a	n/a	n/a	n/a	n/a	n/a	3.0	1.0	3.0	n/a	n/a	n/a	Run4BlockList	1	n/a	n/a	n/a	n/a	n/a	n/a	n/a	n/a	n/a	n/a	n/a	n/a	n/a	n/a	n/a	n/a	n/a	n/a	n/a	n/a	n/a	n/a	n/a	n/a	n/a	n/a	n/a	n/a	n/a	n/a	n/a	n/a	n/a	n/a	n/a	n/a	n/a	n/a	n/a	1.0	1.0	1.0	n/a	n/a	n/a	n/a	n/a	n/a	n/a	n/a	n/a	n/a	n/a	n/a	n/a	n/a	n/a	n/a	n/a	n/a	n/a	n/a	n/a	n/a	n/a	n/a	n/a	n/a	n/a	n/a	n/a	n/a	n/a	n/a	n/a	n/a	n/a	n/a	n/a	n/a	n/a	n/a	n/a	n/a	n/a	n/a	n/a	n/a	n/a	n/a	C4_01.jpg	500	0	677304	-1	677304	0	TrialProc1	C4LowLargeEDBlockList	2500	0	674805	0	674805	-3	674805	2499	d	1150	675955	55.98
59	2.5	000_R01_VA_allProc	55	1	"<?xml version=""1.0""?>\n<Clock xmlns:dt=""urn:schemas-microsoft-com:datatypes""><Description dt:dt=""string"">E-Prime Primary Realtime Clock</Description><StartTime><Timestamp dt:dt=""int"">0</Timestamp><DateUtc dt:dt=""string"">2019-03-12T21:13:27Z</DateUtc></StartTime><FrequencyChanges><FrequencyChange><Frequency dt:dt=""r8"">3020419</Frequency><Timestamp dt:dt=""r8"">64589161874</Timestamp><Current dt:dt=""r8"">0</Current><DateUtc dt:dt=""string"">2019-03-12T21:13:27Z</DateUtc></FrequencyChange></FrequencyChanges></Clock>\n"	000_R01_VA_allProc-55-1	60.023	1.0.0.183	1	165230316	Professional	2.0.10.356	2.0.10.356	03-12-2019	3/12/2019 9:13:27 PM	17:13:27	2.0.10.252	3	0	0	618826	8	618826	3999	-999999	853710	-3	779000	0	Run4Proc	3	1	3	RunList	3	LowLargeED	8000	0	692799	0	692799	0	692799	0	C4LowLargeEDBlockProc	n/a	n/a	n/a	n/a	n/a	n/a	n/a	n/a	n/a	3.0	1.0	3.0	n/a	n/a	n/a	Run4BlockList	2	n/a	n/a	n/a	n/a	n/a	n/a	n/a	n/a	n/a	n/a	n/a	n/a	n/a	n/a	n/a	n/a	n/a	n/a	n/a	n/a	n/a	n/a	n/a	n/a	n/a	n/a	n/a	n/a	n/a	n/a	n/a	n/a	n/a	n/a	n/a	n/a	n/a	n/a	n/a	2.0	1.0	2.0	n/a	n/a	n/a	n/a	n/a	n/a	n/a	n/a	n/a	n/a	n/a	n/a	n/a	n/a	n/a	n/a	n/a	n/a	n/a	n/a	n/a	n/a	n/a	n/a	n/a	n/a	n/a	n/a	n/a	n/a	n/a	n/a	n/a	n/a	n/a	n/a	n/a	n/a	n/a	n/a	n/a	n/a	n/a	n/a	n/a	n/a	n/a	n/a	C4_02.jpg	500	0	680303	-1	680303	0	TrialProc1	C4LowLargeEDBlockList	2500	0	677804	0	677804	0	677804	2499	d	615	678419	58.979
62	2.5	000_R01_VA_allProc	55	1	"<?xml version=""1.0""?>\n<Clock xmlns:dt=""urn:schemas-microsoft-com:datatypes""><Description dt:dt=""string"">E-Prime Primary Realtime Clock</Description><StartTime><Timestamp dt:dt=""int"">0</Timestamp><DateUtc dt:dt=""string"">2019-03-12T21:13:27Z</DateUtc></StartTime><FrequencyChanges><FrequencyChange><Frequency dt:dt=""r8"">3020419</Frequency><Timestamp dt:dt=""r8"">64589161874</Timestamp><Current dt:dt=""r8"">0</Current><DateUtc dt:dt=""string"">2019-03-12T21:13:27Z</DateUtc></FrequencyChange></FrequencyChanges></Clock>\n"	000_R01_VA_allProc-55-1	60.023	1.0.0.183	1	165230316	Professional	2.0.10.356	2.0.10.356	03-12-2019	3/12/2019 9:13:27 PM	17:13:27	2.0.10.252	3	0	0	618826	8	618826	3999	-999999	853710	-3	779000	0	Run4Proc	3	1	3	RunList	3	LowLargeED	8000	0	692799	0	692799	0	692799	0	C4LowLargeEDBlockProc	n/a	n/a	n/a	n/a	n/a	n/a	n/a	n/a	n/a	3.0	1.0	3.0	n/a	n/a	n/a	Run4BlockList	3	n/a	n/a	n/a	n/a	n/a	n/a	n/a	n/a	n/a	n/a	n/a	n/a	n/a	n/a	n/a	n/a	n/a	n/a	n/a	n/a	n/a	n/a	n/a	n/a	n/a	n/a	n/a	n/a	n/a	n/a	n/a	n/a	n/a	n/a	n/a	n/a	n/a	n/a	n/a	3.0	1.0	3.0	n/a	n/a	n/a	n/a	n/a	n/a	n/a	n/a	n/a	n/a	n/a	n/a	n/a	n/a	n/a	n/a	n/a	n/a	n/a	n/a	n/a	n/a	n/a	n/a	n/a	n/a	n/a	n/a	n/a	n/a	n/a	n/a	n/a	n/a	n/a	n/a	n/a	n/a	n/a	n/a	n/a	n/a	n/a	n/a	n/a	n/a	n/a	n/a	C4_03.jpg	500	0	683302	-1	683302	0	TrialProc1	C4LowLargeEDBlockList	2500	0	680803	0	680803	0	680803	2499	c	792	681595	61.978
65	2.5	000_R01_VA_allProc	55	1	"<?xml version=""1.0""?>\n<Clock xmlns:dt=""urn:schemas-microsoft-com:datatypes""><Description dt:dt=""string"">E-Prime Primary Realtime Clock</Description><StartTime><Timestamp dt:dt=""int"">0</Timestamp><DateUtc dt:dt=""string"">2019-03-12T21:13:27Z</DateUtc></StartTime><FrequencyChanges><FrequencyChange><Frequency dt:dt=""r8"">3020419</Frequency><Timestamp dt:dt=""r8"">64589161874</Timestamp><Current dt:dt=""r8"">0</Current><DateUtc dt:dt=""string"">2019-03-12T21:13:27Z</DateUtc></FrequencyChange></FrequencyChanges></Clock>\n"	000_R01_VA_allProc-55-1	60.023	1.0.0.183	1	165230316	Professional	2.0.10.356	2.0.10.356	03-12-2019	3/12/2019 9:13:27 PM	17:13:27	2.0.10.252	3	0	0	618826	8	618826	3999	-999999	853710	-3	779000	0	Run4Proc	3	1	3	RunList	3	LowLargeED	8000	0	692799	0	692799	0	692799	0	C4LowLargeEDBlockProc	n/a	n/a	n/a	n/a	n/a	n/a	n/a	n/a	n/a	3.0	1.0	3.0	n/a	n/a	n/a	Run4BlockList	4	n/a	n/a	n/a	n/a	n/a	n/a	n/a	n/a	n/a	n/a	n/a	n/a	n/a	n/a	n/a	n/a	n/a	n/a	n/a	n/a	n/a	n/a	n/a	n/a	n/a	n/a	n/a	n/a	n/a	n/a	n/a	n/a	n/a	n/a	n/a	n/a	n/a	n/a	n/a	4.0	1.0	4.0	n/a	n/a	n/a	n/a	n/a	n/a	n/a	n/a	n/a	n/a	n/a	n/a	n/a	n/a	n/a	n/a	n/a	n/a	n/a	n/a	n/a	n/a	n/a	n/a	n/a	n/a	n/a	n/a	n/a	n/a	n/a	n/a	n/a	n/a	n/a	n/a	n/a	n/a	n/a	n/a	n/a	n/a	n/a	n/a	n/a	n/a	n/a	n/a	C4_04.jpg	500	0	686301	-1	686301	0	TrialProc1	C4LowLargeEDBlockList	2500	0	683802	0	683802	0	683802	2499	d	953	684755	64.977
68	2.5	000_R01_VA_allProc	55	1	"<?xml version=""1.0""?>\n<Clock xmlns:dt=""urn:schemas-microsoft-com:datatypes""><Description dt:dt=""string"">E-Prime Primary Realtime Clock</Description><StartTime><Timestamp dt:dt=""int"">0</Timestamp><DateUtc dt:dt=""string"">2019-03-12T21:13:27Z</DateUtc></StartTime><FrequencyChanges><FrequencyChange><Frequency dt:dt=""r8"">3020419</Frequency><Timestamp dt:dt=""r8"">64589161874</Timestamp><Current dt:dt=""r8"">0</Current><DateUtc dt:dt=""string"">2019-03-12T21:13:27Z</DateUtc></FrequencyChange></FrequencyChanges></Clock>\n"	000_R01_VA_allProc-55-1	60.023	1.0.0.183	1	165230316	Professional	2.0.10.356	2.0.10.356	03-12-2019	3/12/2019 9:13:27 PM	17:13:27	2.0.10.252	3	0	0	618826	8	618826	3999	-999999	853710	-3	779000	0	Run4Proc	3	1	3	RunList	3	LowLargeED	8000	0	692799	0	692799	0	692799	0	C4LowLargeEDBlockProc	n/a	n/a	n/a	n/a	n/a	n/a	n/a	n/a	n/a	3.0	1.0	3.0	n/a	n/a	n/a	Run4BlockList	5	n/a	n/a	n/a	n/a	n/a	n/a	n/a	n/a	n/a	n/a	n/a	n/a	n/a	n/a	n/a	n/a	n/a	n/a	n/a	n/a	n/a	n/a	n/a	n/a	n/a	n/a	n/a	n/a	n/a	n/a	n/a	n/a	n/a	n/a	n/a	n/a	n/a	n/a	n/a	5.0	1.0	5.0	n/a	n/a	n/a	n/a	n/a	n/a	n/a	n/a	n/a	n/a	n/a	n/a	n/a	n/a	n/a	n/a	n/a	n/a	n/a	n/a	n/a	n/a	n/a	n/a	n/a	n/a	n/a	n/a	n/a	n/a	n/a	n/a	n/a	n/a	n/a	n/a	n/a	n/a	n/a	n/a	n/a	n/a	n/a	n/a	n/a	n/a	n/a	n/a	C4_05.jpg	500	0	689300	-1	689300	0	TrialProc1	C4LowLargeEDBlockList	2500	0	686801	0	686801	0	686801	2499	d	1074	687875	67.976
71	2.5	000_R01_VA_allProc	55	1	"<?xml version=""1.0""?>\n<Clock xmlns:dt=""urn:schemas-microsoft-com:datatypes""><Description dt:dt=""string"">E-Prime Primary Realtime Clock</Description><StartTime><Timestamp dt:dt=""int"">0</Timestamp><DateUtc dt:dt=""string"">2019-03-12T21:13:27Z</DateUtc></StartTime><FrequencyChanges><FrequencyChange><Frequency dt:dt=""r8"">3020419</Frequency><Timestamp dt:dt=""r8"">64589161874</Timestamp><Current dt:dt=""r8"">0</Current><DateUtc dt:dt=""string"">2019-03-12T21:13:27Z</DateUtc></FrequencyChange></FrequencyChanges></Clock>\n"	000_R01_VA_allProc-55-1	60.023	1.0.0.183	1	165230316	Professional	2.0.10.356	2.0.10.356	03-12-2019	3/12/2019 9:13:27 PM	17:13:27	2.0.10.252	3	0	0	618826	8	618826	3999	-999999	853710	-3	779000	0	Run4Proc	3	1	3	RunList	3	LowLargeED	8000	0	692799	0	692799	0	692799	0	C4LowLargeEDBlockProc	n/a	n/a	n/a	n/a	n/a	n/a	n/a	n/a	n/a	3.0	1.0	3.0	n/a	n/a	n/a	Run4BlockList	6	n/a	n/a	n/a	n/a	n/a	n/a	n/a	n/a	n/a	n/a	n/a	n/a	n/a	n/a	n/a	n/a	n/a	n/a	n/a	n/a	n/a	n/a	n/a	n/a	n/a	n/a	n/a	n/a	n/a	n/a	n/a	n/a	n/a	n/a	n/a	n/a	n/a	n/a	n/a	6.0	1.0	6.0	n/a	n/a	n/a	n/a	n/a	n/a	n/a	n/a	n/a	n/a	n/a	n/a	n/a	n/a	n/a	n/a	n/a	n/a	n/a	n/a	n/a	n/a	n/a	n/a	n/a	n/a	n/a	n/a	n/a	n/a	n/a	n/a	n/a	n/a	n/a	n/a	n/a	n/a	n/a	n/a	n/a	n/a	n/a	n/a	n/a	n/a	n/a	n/a	C4_06.jpg	500	0	692299	-1	692299	0	TrialProc1	C4LowLargeEDBlockList	2500	0	689800	0	689800	0	689800	2499	c	1267	691067	70.975
82	2.5	000_R01_VA_allProc	55	1	"<?xml version=""1.0""?>\n<Clock xmlns:dt=""urn:schemas-microsoft-com:datatypes""><Description dt:dt=""string"">E-Prime Primary Realtime Clock</Description><StartTime><Timestamp dt:dt=""int"">0</Timestamp><DateUtc dt:dt=""string"">2019-03-12T21:13:27Z</DateUtc></StartTime><FrequencyChanges><FrequencyChange><Frequency dt:dt=""r8"">3020419</Frequency><Timestamp dt:dt=""r8"">64589161874</Timestamp><Current dt:dt=""r8"">0</Current><DateUtc dt:dt=""string"">2019-03-12T21:13:27Z</DateUtc></FrequencyChange></FrequencyChanges></Clock>\n"	000_R01_VA_allProc-55-1	60.023	1.0.0.183	1	165230316	Professional	2.0.10.356	2.0.10.356	03-12-2019	3/12/2019 9:13:27 PM	17:13:27	2.0.10.252	3	0	0	618826	8	618826	3999	-999999	853710	-3	779000	0	Run4Proc	3	1	3	RunList	4	OfficeLarge	8000	0	718789	0	718789	0	718789	0	E4OfficeLargeBlockProc	n/a	n/a	n/a	n/a	n/a	n/a	n/a	n/a	n/a	4.0	1.0	4.0	n/a	n/a	n/a	Run4BlockList	1	n/a	n/a	n/a	n/a	n/a	n/a	n/a	n/a	n/a	n/a	n/a	n/a	n/a	n/a	n/a	n/a	n/a	n/a	n/a	n/a	n/a	n/a	n/a	n/a	n/a	n/a	n/a	n/a	n/a	n/a	n/a	n/a	n/a	n/a	n/a	n/a	n/a	n/a	n/a	n/a	n/a	n/a	n/a	n/a	n/a	n/a	n/a	n/a	n/a	n/a	n/a	n/a	n/a	n/a	n/a	n/a	n/a	n/a	n/a	n/a	n/a	n/a	n/a	n/a	n/a	n/a	n/a	n/a	n/a	1.0	1.0	1.0	n/a	n/a	n/a	n/a	n/a	n/a	n/a	n/a	n/a	n/a	n/a	n/a	n/a	n/a	n/a	n/a	n/a	n/a	E4_01.jpg	500	0	703295	-1	703295	0	TrialProc1	E4OfficeLargeBlockList	2500	0	700796	0	700796	-3	700796	2499	d	1046	701842	81.971
85	2.5	000_R01_VA_allProc	55	1	"<?xml version=""1.0""?>\n<Clock xmlns:dt=""urn:schemas-microsoft-com:datatypes""><Description dt:dt=""string"">E-Prime Primary Realtime Clock</Description><StartTime><Timestamp dt:dt=""int"">0</Timestamp><DateUtc dt:dt=""string"">2019-03-12T21:13:27Z</DateUtc></StartTime><FrequencyChanges><FrequencyChange><Frequency dt:dt=""r8"">3020419</Frequency><Timestamp dt:dt=""r8"">64589161874</Timestamp><Current dt:dt=""r8"">0</Current><DateUtc dt:dt=""string"">2019-03-12T21:13:27Z</DateUtc></FrequencyChange></FrequencyChanges></Clock>\n"	000_R01_VA_allProc-55-1	60.023	1.0.0.183	1	165230316	Professional	2.0.10.356	2.0.10.356	03-12-2019	3/12/2019 9:13:27 PM	17:13:27	2.0.10.252	3	0	0	618826	8	618826	3999	-999999	853710	-3	779000	0	Run4Proc	3	1	3	RunList	4	OfficeLarge	8000	0	718789	0	718789	0	718789	0	E4OfficeLargeBlockProc	n/a	n/a	n/a	n/a	n/a	n/a	n/a	n/a	n/a	4.0	1.0	4.0	n/a	n/a	n/a	Run4BlockList	2	n/a	n/a	n/a	n/a	n/a	n/a	n/a	n/a	n/a	n/a	n/a	n/a	n/a	n/a	n/a	n/a	n/a	n/a	n/a	n/a	n/a	n/a	n/a	n/a	n/a	n/a	n/a	n/a	n/a	n/a	n/a	n/a	n/a	n/a	n/a	n/a	n/a	n/a	n/a	n/a	n/a	n/a	n/a	n/a	n/a	n/a	n/a	n/a	n/a	n/a	n/a	n/a	n/a	n/a	n/a	n/a	n/a	n/a	n/a	n/a	n/a	n/a	n/a	n/a	n/a	n/a	n/a	n/a	n/a	2.0	1.0	2.0	n/a	n/a	n/a	n/a	n/a	n/a	n/a	n/a	n/a	n/a	n/a	n/a	n/a	n/a	n/a	n/a	n/a	n/a	E4_02.jpg	500	0	706294	0	706294	0	TrialProc1	E4OfficeLargeBlockList	2500	1	703795	1	703795	-1	703794	2500	d	720	704514	84.969
88	2.5	000_R01_VA_allProc	55	1	"<?xml version=""1.0""?>\n<Clock xmlns:dt=""urn:schemas-microsoft-com:datatypes""><Description dt:dt=""string"">E-Prime Primary Realtime Clock</Description><StartTime><Timestamp dt:dt=""int"">0</Timestamp><DateUtc dt:dt=""string"">2019-03-12T21:13:27Z</DateUtc></StartTime><FrequencyChanges><FrequencyChange><Frequency dt:dt=""r8"">3020419</Frequency><Timestamp dt:dt=""r8"">64589161874</Timestamp><Current dt:dt=""r8"">0</Current><DateUtc dt:dt=""string"">2019-03-12T21:13:27Z</DateUtc></FrequencyChange></FrequencyChanges></Clock>\n"	000_R01_VA_allProc-55-1	60.023	1.0.0.183	1	165230316	Professional	2.0.10.356	2.0.10.356	03-12-2019	3/12/2019 9:13:27 PM	17:13:27	2.0.10.252	3	0	0	618826	8	618826	3999	-999999	853710	-3	779000	0	Run4Proc	3	1	3	RunList	4	OfficeLarge	8000	0	718789	0	718789	0	718789	0	E4OfficeLargeBlockProc	n/a	n/a	n/a	n/a	n/a	n/a	n/a	n/a	n/a	4.0	1.0	4.0	n/a	n/a	n/a	Run4BlockList	3	n/a	n/a	n/a	n/a	n/a	n/a	n/a	n/a	n/a	n/a	n/a	n/a	n/a	n/a	n/a	n/a	n/a	n/a	n/a	n/a	n/a	n/a	n/a	n/a	n/a	n/a	n/a	n/a	n/a	n/a	n/a	n/a	n/a	n/a	n/a	n/a	n/a	n/a	n/a	n/a	n/a	n/a	n/a	n/a	n/a	n/a	n/a	n/a	n/a	n/a	n/a	n/a	n/a	n/a	n/a	n/a	n/a	n/a	n/a	n/a	n/a	n/a	n/a	n/a	n/a	n/a	n/a	n/a	n/a	3.0	1.0	3.0	n/a	n/a	n/a	n/a	n/a	n/a	n/a	n/a	n/a	n/a	n/a	n/a	n/a	n/a	n/a	n/a	n/a	n/a	E4_03.jpg	500	0	709292	-1	709292	0	TrialProc1	E4OfficeLargeBlockList	2500	0	706793	0	706793	-1	706793	2499	c	1177	707970	87.968
91	2.5	000_R01_VA_allProc	55	1	"<?xml version=""1.0""?>\n<Clock xmlns:dt=""urn:schemas-microsoft-com:datatypes""><Description dt:dt=""string"">E-Prime Primary Realtime Clock</Description><StartTime><Timestamp dt:dt=""int"">0</Timestamp><DateUtc dt:dt=""string"">2019-03-12T21:13:27Z</DateUtc></StartTime><FrequencyChanges><FrequencyChange><Frequency dt:dt=""r8"">3020419</Frequency><Timestamp dt:dt=""r8"">64589161874</Timestamp><Current dt:dt=""r8"">0</Current><DateUtc dt:dt=""string"">2019-03-12T21:13:27Z</DateUtc></FrequencyChange></FrequencyChanges></Clock>\n"	000_R01_VA_allProc-55-1	60.023	1.0.0.183	1	165230316	Professional	2.0.10.356	2.0.10.356	03-12-2019	3/12/2019 9:13:27 PM	17:13:27	2.0.10.252	3	0	0	618826	8	618826	3999	-999999	853710	-3	779000	0	Run4Proc	3	1	3	RunList	4	OfficeLarge	8000	0	718789	0	718789	0	718789	0	E4OfficeLargeBlockProc	n/a	n/a	n/a	n/a	n/a	n/a	n/a	n/a	n/a	4.0	1.0	4.0	n/a	n/a	n/a	Run4BlockList	4	n/a	n/a	n/a	n/a	n/a	n/a	n/a	n/a	n/a	n/a	n/a	n/a	n/a	n/a	n/a	n/a	n/a	n/a	n/a	n/a	n/a	n/a	n/a	n/a	n/a	n/a	n/a	n/a	n/a	n/a	n/a	n/a	n/a	n/a	n/a	n/a	n/a	n/a	n/a	n/a	n/a	n/a	n/a	n/a	n/a	n/a	n/a	n/a	n/a	n/a	n/a	n/a	n/a	n/a	n/a	n/a	n/a	n/a	n/a	n/a	n/a	n/a	n/a	n/a	n/a	n/a	n/a	n/a	n/a	4.0	1.0	4.0	n/a	n/a	n/a	n/a	n/a	n/a	n/a	n/a	n/a	n/a	n/a	n/a	n/a	n/a	n/a	n/a	n/a	n/a	E4_04.jpg	500	0	712291	-1	712291	0	TrialProc1	E4OfficeLargeBlockList	2500	0	709792	0	709792	0	709792	2499	d	770	710562	90.967
94	2.5	000_R01_VA_allProc	55	1	"<?xml version=""1.0""?>\n<Clock xmlns:dt=""urn:schemas-microsoft-com:datatypes""><Description dt:dt=""string"">E-Prime Primary Realtime Clock</Description><StartTime><Timestamp dt:dt=""int"">0</Timestamp><DateUtc dt:dt=""string"">2019-03-12T21:13:27Z</DateUtc></StartTime><FrequencyChanges><FrequencyChange><Frequency dt:dt=""r8"">3020419</Frequency><Timestamp dt:dt=""r8"">64589161874</Timestamp><Current dt:dt=""r8"">0</Current><DateUtc dt:dt=""string"">2019-03-12T21:13:27Z</DateUtc></FrequencyChange></FrequencyChanges></Clock>\n"	000_R01_VA_allProc-55-1	60.023	1.0.0.183	1	165230316	Professional	2.0.10.356	2.0.10.356	03-12-2019	3/12/2019 9:13:27 PM	17:13:27	2.0.10.252	3	0	0	618826	8	618826	3999	-999999	853710	-3	779000	0	Run4Proc	3	1	3	RunList	4	OfficeLarge	8000	0	718789	0	718789	0	718789	0	E4OfficeLargeBlockProc	n/a	n/a	n/a	n/a	n/a	n/a	n/a	n/a	n/a	4.0	1.0	4.0	n/a	n/a	n/a	Run4BlockList	5	n/a	n/a	n/a	n/a	n/a	n/a	n/a	n/a	n/a	n/a	n/a	n/a	n/a	n/a	n/a	n/a	n/a	n/a	n/a	n/a	n/a	n/a	n/a	n/a	n/a	n/a	n/a	n/a	n/a	n/a	n/a	n/a	n/a	n/a	n/a	n/a	n/a	n/a	n/a	n/a	n/a	n/a	n/a	n/a	n/a	n/a	n/a	n/a	n/a	n/a	n/a	n/a	n/a	n/a	n/a	n/a	n/a	n/a	n/a	n/a	n/a	n/a	n/a	n/a	n/a	n/a	n/a	n/a	n/a	5.0	1.0	5.0	n/a	n/a	n/a	n/a	n/a	n/a	n/a	n/a	n/a	n/a	n/a	n/a	n/a	n/a	n/a	n/a	n/a	n/a	E4_05.jpg	500	0	715290	-1	715290	0	TrialProc1	E4OfficeLargeBlockList	2500	0	712791	0	712791	0	712791	2499	d	571	713362	93.966
97	2.5	000_R01_VA_allProc	55	1	"<?xml version=""1.0""?>\n<Clock xmlns:dt=""urn:schemas-microsoft-com:datatypes""><Description dt:dt=""string"">E-Prime Primary Realtime Clock</Description><StartTime><Timestamp dt:dt=""int"">0</Timestamp><DateUtc dt:dt=""string"">2019-03-12T21:13:27Z</DateUtc></StartTime><FrequencyChanges><FrequencyChange><Frequency dt:dt=""r8"">3020419</Frequency><Timestamp dt:dt=""r8"">64589161874</Timestamp><Current dt:dt=""r8"">0</Current><DateUtc dt:dt=""string"">2019-03-12T21:13:27Z</DateUtc></FrequencyChange></FrequencyChanges></Clock>\n"	000_R01_VA_allProc-55-1	60.023	1.0.0.183	1	165230316	Professional	2.0.10.356	2.0.10.356	03-12-2019	3/12/2019 9:13:27 PM	17:13:27	2.0.10.252	3	0	0	618826	8	618826	3999	-999999	853710	-3	779000	0	Run4Proc	3	1	3	RunList	4	OfficeLarge	8000	0	718789	0	718789	0	718789	0	E4OfficeLargeBlockProc	n/a	n/a	n/a	n/a	n/a	n/a	n/a	n/a	n/a	4.0	1.0	4.0	n/a	n/a	n/a	Run4BlockList	6	n/a	n/a	n/a	n/a	n/a	n/a	n/a	n/a	n/a	n/a	n/a	n/a	n/a	n/a	n/a	n/a	n/a	n/a	n/a	n/a	n/a	n/a	n/a	n/a	n/a	n/a	n/a	n/a	n/a	n/a	n/a	n/a	n/a	n/a	n/a	n/a	n/a	n/a	n/a	n/a	n/a	n/a	n/a	n/a	n/a	n/a	n/a	n/a	n/a	n/a	n/a	n/a	n/a	n/a	n/a	n/a	n/a	n/a	n/a	n/a	n/a	n/a	n/a	n/a	n/a	n/a	n/a	n/a	n/a	6.0	1.0	6.0	n/a	n/a	n/a	n/a	n/a	n/a	n/a	n/a	n/a	n/a	n/a	n/a	n/a	n/a	n/a	n/a	n/a	n/a	E4_06.jpg	500	0	718289	-1	718289	0	TrialProc1	E4OfficeLargeBlockList	2500	0	715790	0	715790	0	715790	2499	d	620	716410	96.965
108	2.5	000_R01_VA_allProc	55	1	"<?xml version=""1.0""?>\n<Clock xmlns:dt=""urn:schemas-microsoft-com:datatypes""><Description dt:dt=""string"">E-Prime Primary Realtime Clock</Description><StartTime><Timestamp dt:dt=""int"">0</Timestamp><DateUtc dt:dt=""string"">2019-03-12T21:13:27Z</DateUtc></StartTime><FrequencyChanges><FrequencyChange><Frequency dt:dt=""r8"">3020419</Frequency><Timestamp dt:dt=""r8"">64589161874</Timestamp><Current dt:dt=""r8"">0</Current><DateUtc dt:dt=""string"">2019-03-12T21:13:27Z</DateUtc></FrequencyChange></FrequencyChanges></Clock>\n"	000_R01_VA_allProc-55-1	60.023	1.0.0.183	1	165230316	Professional	2.0.10.356	2.0.10.356	03-12-2019	3/12/2019 9:13:27 PM	17:13:27	2.0.10.252	3	0	0	618826	8	618826	3999	-999999	853710	-3	779000	0	Run4Proc	3	1	3	RunList	5	LowSmallED	8000	0	744779	0	744779	0	744779	0	D4LowSmallEDBlockProc	n/a	n/a	n/a	n/a	n/a	n/a	n/a	n/a	n/a	5.0	1.0	5.0	n/a	n/a	n/a	Run4BlockList	1	n/a	n/a	n/a	n/a	n/a	n/a	n/a	n/a	n/a	n/a	n/a	n/a	n/a	n/a	n/a	n/a	n/a	n/a	n/a	n/a	n/a	n/a	n/a	n/a	n/a	n/a	n/a	n/a	n/a	n/a	n/a	n/a	n/a	n/a	n/a	n/a	n/a	n/a	n/a	n/a	n/a	n/a	n/a	n/a	n/a	n/a	n/a	n/a	n/a	n/a	n/a	n/a	n/a	n/a	1.0	1.0	1.0	n/a	n/a	n/a	n/a	n/a	n/a	n/a	n/a	n/a	n/a	n/a	n/a	n/a	n/a	n/a	n/a	n/a	n/a	n/a	n/a	n/a	n/a	n/a	n/a	n/a	n/a	n/a	n/a	n/a	n/a	n/a	n/a	n/a	D4_01.jpg	500	0	729285	-1	729285	0	TrialProc1	D4LowSmallEDBlockList	2500	0	726786	0	726786	-3	726786	2499	d	800	727586	107.961
111	2.5	000_R01_VA_allProc	55	1	"<?xml version=""1.0""?>\n<Clock xmlns:dt=""urn:schemas-microsoft-com:datatypes""><Description dt:dt=""string"">E-Prime Primary Realtime Clock</Description><StartTime><Timestamp dt:dt=""int"">0</Timestamp><DateUtc dt:dt=""string"">2019-03-12T21:13:27Z</DateUtc></StartTime><FrequencyChanges><FrequencyChange><Frequency dt:dt=""r8"">3020419</Frequency><Timestamp dt:dt=""r8"">64589161874</Timestamp><Current dt:dt=""r8"">0</Current><DateUtc dt:dt=""string"">2019-03-12T21:13:27Z</DateUtc></FrequencyChange></FrequencyChanges></Clock>\n"	000_R01_VA_allProc-55-1	60.023	1.0.0.183	1	165230316	Professional	2.0.10.356	2.0.10.356	03-12-2019	3/12/2019 9:13:27 PM	17:13:27	2.0.10.252	3	0	0	618826	8	618826	3999	-999999	853710	-3	779000	0	Run4Proc	3	1	3	RunList	5	LowSmallED	8000	0	744779	0	744779	0	744779	0	D4LowSmallEDBlockProc	n/a	n/a	n/a	n/a	n/a	n/a	n/a	n/a	n/a	5.0	1.0	5.0	n/a	n/a	n/a	Run4BlockList	2	n/a	n/a	n/a	n/a	n/a	n/a	n/a	n/a	n/a	n/a	n/a	n/a	n/a	n/a	n/a	n/a	n/a	n/a	n/a	n/a	n/a	n/a	n/a	n/a	n/a	n/a	n/a	n/a	n/a	n/a	n/a	n/a	n/a	n/a	n/a	n/a	n/a	n/a	n/a	n/a	n/a	n/a	n/a	n/a	n/a	n/a	n/a	n/a	n/a	n/a	n/a	n/a	n/a	n/a	2.0	1.0	2.0	n/a	n/a	n/a	n/a	n/a	n/a	n/a	n/a	n/a	n/a	n/a	n/a	n/a	n/a	n/a	n/a	n/a	n/a	n/a	n/a	n/a	n/a	n/a	n/a	n/a	n/a	n/a	n/a	n/a	n/a	n/a	n/a	n/a	D4_02.jpg	500	0	732284	-1	732284	0	TrialProc1	D4LowSmallEDBlockList	2500	0	729785	0	729785	0	729785	2499	c	1097	730882	110.96
114	2.5	000_R01_VA_allProc	55	1	"<?xml version=""1.0""?>\n<Clock xmlns:dt=""urn:schemas-microsoft-com:datatypes""><Description dt:dt=""string"">E-Prime Primary Realtime Clock</Description><StartTime><Timestamp dt:dt=""int"">0</Timestamp><DateUtc dt:dt=""string"">2019-03-12T21:13:27Z</DateUtc></StartTime><FrequencyChanges><FrequencyChange><Frequency dt:dt=""r8"">3020419</Frequency><Timestamp dt:dt=""r8"">64589161874</Timestamp><Current dt:dt=""r8"">0</Current><DateUtc dt:dt=""string"">2019-03-12T21:13:27Z</DateUtc></FrequencyChange></FrequencyChanges></Clock>\n"	000_R01_VA_allProc-55-1	60.023	1.0.0.183	1	165230316	Professional	2.0.10.356	2.0.10.356	03-12-2019	3/12/2019 9:13:27 PM	17:13:27	2.0.10.252	3	0	0	618826	8	618826	3999	-999999	853710	-3	779000	0	Run4Proc	3	1	3	RunList	5	LowSmallED	8000	0	744779	0	744779	0	744779	0	D4LowSmallEDBlockProc	n/a	n/a	n/a	n/a	n/a	n/a	n/a	n/a	n/a	5.0	1.0	5.0	n/a	n/a	n/a	Run4BlockList	3	n/a	n/a	n/a	n/a	n/a	n/a	n/a	n/a	n/a	n/a	n/a	n/a	n/a	n/a	n/a	n/a	n/a	n/a	n/a	n/a	n/a	n/a	n/a	n/a	n/a	n/a	n/a	n/a	n/a	n/a	n/a	n/a	n/a	n/a	n/a	n/a	n/a	n/a	n/a	n/a	n/a	n/a	n/a	n/a	n/a	n/a	n/a	n/a	n/a	n/a	n/a	n/a	n/a	n/a	3.0	1.0	3.0	n/a	n/a	n/a	n/a	n/a	n/a	n/a	n/a	n/a	n/a	n/a	n/a	n/a	n/a	n/a	n/a	n/a	n/a	n/a	n/a	n/a	n/a	n/a	n/a	n/a	n/a	n/a	n/a	n/a	n/a	n/a	n/a	n/a	D4_03.jpg	500	0	735283	-1	735283	0	TrialProc1	D4LowSmallEDBlockList	2500	0	732784	0	732784	0	732784	2499	c	1162	733946	113.959
117	2.5	000_R01_VA_allProc	55	1	"<?xml version=""1.0""?>\n<Clock xmlns:dt=""urn:schemas-microsoft-com:datatypes""><Description dt:dt=""string"">E-Prime Primary Realtime Clock</Description><StartTime><Timestamp dt:dt=""int"">0</Timestamp><DateUtc dt:dt=""string"">2019-03-12T21:13:27Z</DateUtc></StartTime><FrequencyChanges><FrequencyChange><Frequency dt:dt=""r8"">3020419</Frequency><Timestamp dt:dt=""r8"">64589161874</Timestamp><Current dt:dt=""r8"">0</Current><DateUtc dt:dt=""string"">2019-03-12T21:13:27Z</DateUtc></FrequencyChange></FrequencyChanges></Clock>\n"	000_R01_VA_allProc-55-1	60.023	1.0.0.183	1	165230316	Professional	2.0.10.356	2.0.10.356	03-12-2019	3/12/2019 9:13:27 PM	17:13:27	2.0.10.252	3	0	0	618826	8	618826	3999	-999999	853710	-3	779000	0	Run4Proc	3	1	3	RunList	5	LowSmallED	8000	0	744779	0	744779	0	744779	0	D4LowSmallEDBlockProc	n/a	n/a	n/a	n/a	n/a	n/a	n/a	n/a	n/a	5.0	1.0	5.0	n/a	n/a	n/a	Run4BlockList	4	n/a	n/a	n/a	n/a	n/a	n/a	n/a	n/a	n/a	n/a	n/a	n/a	n/a	n/a	n/a	n/a	n/a	n/a	n/a	n/a	n/a	n/a	n/a	n/a	n/a	n/a	n/a	n/a	n/a	n/a	n/a	n/a	n/a	n/a	n/a	n/a	n/a	n/a	n/a	n/a	n/a	n/a	n/a	n/a	n/a	n/a	n/a	n/a	n/a	n/a	n/a	n/a	n/a	n/a	4.0	1.0	4.0	n/a	n/a	n/a	n/a	n/a	n/a	n/a	n/a	n/a	n/a	n/a	n/a	n/a	n/a	n/a	n/a	n/a	n/a	n/a	n/a	n/a	n/a	n/a	n/a	n/a	n/a	n/a	n/a	n/a	n/a	n/a	n/a	n/a	D4_04.jpg	500	0	738282	0	738282	0	TrialProc1	D4LowSmallEDBlockList	2500	1	735783	1	735783	-1	735782	2500	d	988	736770	116.957
120	2.5	000_R01_VA_allProc	55	1	"<?xml version=""1.0""?>\n<Clock xmlns:dt=""urn:schemas-microsoft-com:datatypes""><Description dt:dt=""string"">E-Prime Primary Realtime Clock</Description><StartTime><Timestamp dt:dt=""int"">0</Timestamp><DateUtc dt:dt=""string"">2019-03-12T21:13:27Z</DateUtc></StartTime><FrequencyChanges><FrequencyChange><Frequency dt:dt=""r8"">3020419</Frequency><Timestamp dt:dt=""r8"">64589161874</Timestamp><Current dt:dt=""r8"">0</Current><DateUtc dt:dt=""string"">2019-03-12T21:13:27Z</DateUtc></FrequencyChange></FrequencyChanges></Clock>\n"	000_R01_VA_allProc-55-1	60.023	1.0.0.183	1	165230316	Professional	2.0.10.356	2.0.10.356	03-12-2019	3/12/2019 9:13:27 PM	17:13:27	2.0.10.252	3	0	0	618826	8	618826	3999	-999999	853710	-3	779000	0	Run4Proc	3	1	3	RunList	5	LowSmallED	8000	0	744779	0	744779	0	744779	0	D4LowSmallEDBlockProc	n/a	n/a	n/a	n/a	n/a	n/a	n/a	n/a	n/a	5.0	1.0	5.0	n/a	n/a	n/a	Run4BlockList	5	n/a	n/a	n/a	n/a	n/a	n/a	n/a	n/a	n/a	n/a	n/a	n/a	n/a	n/a	n/a	n/a	n/a	n/a	n/a	n/a	n/a	n/a	n/a	n/a	n/a	n/a	n/a	n/a	n/a	n/a	n/a	n/a	n/a	n/a	n/a	n/a	n/a	n/a	n/a	n/a	n/a	n/a	n/a	n/a	n/a	n/a	n/a	n/a	n/a	n/a	n/a	n/a	n/a	n/a	5.0	1.0	5.0	n/a	n/a	n/a	n/a	n/a	n/a	n/a	n/a	n/a	n/a	n/a	n/a	n/a	n/a	n/a	n/a	n/a	n/a	n/a	n/a	n/a	n/a	n/a	n/a	n/a	n/a	n/a	n/a	n/a	n/a	n/a	n/a	n/a	D4_05.jpg	500	1	741281	-1	741280	0	TrialProc1	D4LowSmallEDBlockList	2500	0	738781	0	738781	-1	738781	2499	c	797	739578	119.956
123	2.5	000_R01_VA_allProc	55	1	"<?xml version=""1.0""?>\n<Clock xmlns:dt=""urn:schemas-microsoft-com:datatypes""><Description dt:dt=""string"">E-Prime Primary Realtime Clock</Description><StartTime><Timestamp dt:dt=""int"">0</Timestamp><DateUtc dt:dt=""string"">2019-03-12T21:13:27Z</DateUtc></StartTime><FrequencyChanges><FrequencyChange><Frequency dt:dt=""r8"">3020419</Frequency><Timestamp dt:dt=""r8"">64589161874</Timestamp><Current dt:dt=""r8"">0</Current><DateUtc dt:dt=""string"">2019-03-12T21:13:27Z</DateUtc></FrequencyChange></FrequencyChanges></Clock>\n"	000_R01_VA_allProc-55-1	60.023	1.0.0.183	1	165230316	Professional	2.0.10.356	2.0.10.356	03-12-2019	3/12/2019 9:13:27 PM	17:13:27	2.0.10.252	3	0	0	618826	8	618826	3999	-999999	853710	-3	779000	0	Run4Proc	3	1	3	RunList	5	LowSmallED	8000	0	744779	0	744779	0	744779	0	D4LowSmallEDBlockProc	n/a	n/a	n/a	n/a	n/a	n/a	n/a	n/a	n/a	5.0	1.0	5.0	n/a	n/a	n/a	Run4BlockList	6	n/a	n/a	n/a	n/a	n/a	n/a	n/a	n/a	n/a	n/a	n/a	n/a	n/a	n/a	n/a	n/a	n/a	n/a	n/a	n/a	n/a	n/a	n/a	n/a	n/a	n/a	n/a	n/a	n/a	n/a	n/a	n/a	n/a	n/a	n/a	n/a	n/a	n/a	n/a	n/a	n/a	n/a	n/a	n/a	n/a	n/a	n/a	n/a	n/a	n/a	n/a	n/a	n/a	n/a	6.0	1.0	6.0	n/a	n/a	n/a	n/a	n/a	n/a	n/a	n/a	n/a	n/a	n/a	n/a	n/a	n/a	n/a	n/a	n/a	n/a	n/a	n/a	n/a	n/a	n/a	n/a	n/a	n/a	n/a	n/a	n/a	n/a	n/a	n/a	n/a	D4_06.jpg	500	0	744279	-1	744279	0	TrialProc1	D4LowSmallEDBlockList	2500	0	741780	0	741780	0	741780	2499	c	1309	743089	122.955
134	2.5	000_R01_VA_allProc	55	1	"<?xml version=""1.0""?>\n<Clock xmlns:dt=""urn:schemas-microsoft-com:datatypes""><Description dt:dt=""string"">E-Prime Primary Realtime Clock</Description><StartTime><Timestamp dt:dt=""int"">0</Timestamp><DateUtc dt:dt=""string"">2019-03-12T21:13:27Z</DateUtc></StartTime><FrequencyChanges><FrequencyChange><Frequency dt:dt=""r8"">3020419</Frequency><Timestamp dt:dt=""r8"">64589161874</Timestamp><Current dt:dt=""r8"">0</Current><DateUtc dt:dt=""string"">2019-03-12T21:13:27Z</DateUtc></FrequencyChange></FrequencyChanges></Clock>\n"	000_R01_VA_allProc-55-1	60.023	1.0.0.183	1	165230316	Professional	2.0.10.356	2.0.10.356	03-12-2019	3/12/2019 9:13:27 PM	17:13:27	2.0.10.252	3	0	0	618826	8	618826	3999	-999999	853710	-3	779000	0	Run4Proc	3	1	3	RunList	6	HighLargeED	8000	0	771003	0	771003	0	771003	0	A4HighLargeEDBlockProc	n/a	n/a	n/a	n/a	n/a	n/a	n/a	n/a	n/a	6.0	1.0	6.0	n/a	n/a	n/a	Run4BlockList	1	n/a	n/a	n/a	n/a	n/a	n/a	n/a	n/a	n/a	1.0	1.0	1.0	n/a	n/a	n/a	n/a	n/a	n/a	n/a	n/a	n/a	n/a	n/a	n/a	n/a	n/a	n/a	n/a	n/a	n/a	n/a	n/a	n/a	n/a	n/a	n/a	n/a	n/a	n/a	n/a	n/a	n/a	n/a	n/a	n/a	n/a	n/a	n/a	n/a	n/a	n/a	n/a	n/a	n/a	n/a	n/a	n/a	n/a	n/a	n/a	n/a	n/a	n/a	n/a	n/a	n/a	n/a	n/a	n/a	n/a	n/a	n/a	n/a	n/a	n/a	n/a	n/a	n/a	n/a	n/a	n/a	n/a	n/a	n/a	n/a	n/a	n/a	n/a	n/a	n/a	A4_01.jpg	500	0	755275	-1	755275	0	TrialProc1	A4HighLargeEDBlockList	2500	0	752776	0	752776	-3	752776	2499	d	833	753609	133.951
137	2.5	000_R01_VA_allProc	55	1	"<?xml version=""1.0""?>\n<Clock xmlns:dt=""urn:schemas-microsoft-com:datatypes""><Description dt:dt=""string"">E-Prime Primary Realtime Clock</Description><StartTime><Timestamp dt:dt=""int"">0</Timestamp><DateUtc dt:dt=""string"">2019-03-12T21:13:27Z</DateUtc></StartTime><FrequencyChanges><FrequencyChange><Frequency dt:dt=""r8"">3020419</Frequency><Timestamp dt:dt=""r8"">64589161874</Timestamp><Current dt:dt=""r8"">0</Current><DateUtc dt:dt=""string"">2019-03-12T21:13:27Z</DateUtc></FrequencyChange></FrequencyChanges></Clock>\n"	000_R01_VA_allProc-55-1	60.023	1.0.0.183	1	165230316	Professional	2.0.10.356	2.0.10.356	03-12-2019	3/12/2019 9:13:27 PM	17:13:27	2.0.10.252	3	0	0	618826	8	618826	3999	-999999	853710	-3	779000	0	Run4Proc	3	1	3	RunList	6	HighLargeED	8000	0	771003	0	771003	0	771003	0	A4HighLargeEDBlockProc	n/a	n/a	n/a	n/a	n/a	n/a	n/a	n/a	n/a	6.0	1.0	6.0	n/a	n/a	n/a	Run4BlockList	2	n/a	n/a	n/a	n/a	n/a	n/a	n/a	n/a	n/a	2.0	1.0	2.0	n/a	n/a	n/a	n/a	n/a	n/a	n/a	n/a	n/a	n/a	n/a	n/a	n/a	n/a	n/a	n/a	n/a	n/a	n/a	n/a	n/a	n/a	n/a	n/a	n/a	n/a	n/a	n/a	n/a	n/a	n/a	n/a	n/a	n/a	n/a	n/a	n/a	n/a	n/a	n/a	n/a	n/a	n/a	n/a	n/a	n/a	n/a	n/a	n/a	n/a	n/a	n/a	n/a	n/a	n/a	n/a	n/a	n/a	n/a	n/a	n/a	n/a	n/a	n/a	n/a	n/a	n/a	n/a	n/a	n/a	n/a	n/a	n/a	n/a	n/a	n/a	n/a	n/a	A4_02.jpg	500	0	758274	-1	758274	0	TrialProc1	A4HighLargeEDBlockList	2500	0	755775	0	755775	0	755775	2499	d	930	756705	136.95
140	2.5	000_R01_VA_allProc	55	1	"<?xml version=""1.0""?>\n<Clock xmlns:dt=""urn:schemas-microsoft-com:datatypes""><Description dt:dt=""string"">E-Prime Primary Realtime Clock</Description><StartTime><Timestamp dt:dt=""int"">0</Timestamp><DateUtc dt:dt=""string"">2019-03-12T21:13:27Z</DateUtc></StartTime><FrequencyChanges><FrequencyChange><Frequency dt:dt=""r8"">3020419</Frequency><Timestamp dt:dt=""r8"">64589161874</Timestamp><Current dt:dt=""r8"">0</Current><DateUtc dt:dt=""string"">2019-03-12T21:13:27Z</DateUtc></FrequencyChange></FrequencyChanges></Clock>\n"	000_R01_VA_allProc-55-1	60.023	1.0.0.183	1	165230316	Professional	2.0.10.356	2.0.10.356	03-12-2019	3/12/2019 9:13:27 PM	17:13:27	2.0.10.252	3	0	0	618826	8	618826	3999	-999999	853710	-3	779000	0	Run4Proc	3	1	3	RunList	6	HighLargeED	8000	0	771003	0	771003	0	771003	0	A4HighLargeEDBlockProc	n/a	n/a	n/a	n/a	n/a	n/a	n/a	n/a	n/a	6.0	1.0	6.0	n/a	n/a	n/a	Run4BlockList	3	n/a	n/a	n/a	n/a	n/a	n/a	n/a	n/a	n/a	3.0	1.0	3.0	n/a	n/a	n/a	n/a	n/a	n/a	n/a	n/a	n/a	n/a	n/a	n/a	n/a	n/a	n/a	n/a	n/a	n/a	n/a	n/a	n/a	n/a	n/a	n/a	n/a	n/a	n/a	n/a	n/a	n/a	n/a	n/a	n/a	n/a	n/a	n/a	n/a	n/a	n/a	n/a	n/a	n/a	n/a	n/a	n/a	n/a	n/a	n/a	n/a	n/a	n/a	n/a	n/a	n/a	n/a	n/a	n/a	n/a	n/a	n/a	n/a	n/a	n/a	n/a	n/a	n/a	n/a	n/a	n/a	n/a	n/a	n/a	n/a	n/a	n/a	n/a	n/a	n/a	A4_03.jpg	500	0	761273	-1	761273	0	TrialProc1	A4HighLargeEDBlockList	2500	0	758774	0	758774	0	758774	2499	c	987	759761	139.949
143	2.5	000_R01_VA_allProc	55	1	"<?xml version=""1.0""?>\n<Clock xmlns:dt=""urn:schemas-microsoft-com:datatypes""><Description dt:dt=""string"">E-Prime Primary Realtime Clock</Description><StartTime><Timestamp dt:dt=""int"">0</Timestamp><DateUtc dt:dt=""string"">2019-03-12T21:13:27Z</DateUtc></StartTime><FrequencyChanges><FrequencyChange><Frequency dt:dt=""r8"">3020419</Frequency><Timestamp dt:dt=""r8"">64589161874</Timestamp><Current dt:dt=""r8"">0</Current><DateUtc dt:dt=""string"">2019-03-12T21:13:27Z</DateUtc></FrequencyChange></FrequencyChanges></Clock>\n"	000_R01_VA_allProc-55-1	60.023	1.0.0.183	1	165230316	Professional	2.0.10.356	2.0.10.356	03-12-2019	3/12/2019 9:13:27 PM	17:13:27	2.0.10.252	3	0	0	618826	8	618826	3999	-999999	853710	-3	779000	0	Run4Proc	3	1	3	RunList	6	HighLargeED	8000	0	771003	0	771003	0	771003	0	A4HighLargeEDBlockProc	n/a	n/a	n/a	n/a	n/a	n/a	n/a	n/a	n/a	6.0	1.0	6.0	n/a	n/a	n/a	Run4BlockList	4	n/a	n/a	n/a	n/a	n/a	n/a	n/a	n/a	n/a	4.0	1.0	4.0	n/a	n/a	n/a	n/a	n/a	n/a	n/a	n/a	n/a	n/a	n/a	n/a	n/a	n/a	n/a	n/a	n/a	n/a	n/a	n/a	n/a	n/a	n/a	n/a	n/a	n/a	n/a	n/a	n/a	n/a	n/a	n/a	n/a	n/a	n/a	n/a	n/a	n/a	n/a	n/a	n/a	n/a	n/a	n/a	n/a	n/a	n/a	n/a	n/a	n/a	n/a	n/a	n/a	n/a	n/a	n/a	n/a	n/a	n/a	n/a	n/a	n/a	n/a	n/a	n/a	n/a	n/a	n/a	n/a	n/a	n/a	n/a	n/a	n/a	n/a	n/a	n/a	n/a	A4_04.jpg	500	0	764272	-1	764272	0	TrialProc1	A4HighLargeEDBlockList	2500	0	761773	0	761773	0	761773	2499	d	1204	762977	142.948
146	2.5	000_R01_VA_allProc	55	1	"<?xml version=""1.0""?>\n<Clock xmlns:dt=""urn:schemas-microsoft-com:datatypes""><Description dt:dt=""string"">E-Prime Primary Realtime Clock</Description><StartTime><Timestamp dt:dt=""int"">0</Timestamp><DateUtc dt:dt=""string"">2019-03-12T21:13:27Z</DateUtc></StartTime><FrequencyChanges><FrequencyChange><Frequency dt:dt=""r8"">3020419</Frequency><Timestamp dt:dt=""r8"">64589161874</Timestamp><Current dt:dt=""r8"">0</Current><DateUtc dt:dt=""string"">2019-03-12T21:13:27Z</DateUtc></FrequencyChange></FrequencyChanges></Clock>\n"	000_R01_VA_allProc-55-1	60.023	1.0.0.183	1	165230316	Professional	2.0.10.356	2.0.10.356	03-12-2019	3/12/2019 9:13:27 PM	17:13:27	2.0.10.252	3	0	0	618826	8	618826	3999	-999999	853710	-3	779000	0	Run4Proc	3	1	3	RunList	6	HighLargeED	8000	0	771003	0	771003	0	771003	0	A4HighLargeEDBlockProc	n/a	n/a	n/a	n/a	n/a	n/a	n/a	n/a	n/a	6.0	1.0	6.0	n/a	n/a	n/a	Run4BlockList	5	n/a	n/a	n/a	n/a	n/a	n/a	n/a	n/a	n/a	5.0	1.0	5.0	n/a	n/a	n/a	n/a	n/a	n/a	n/a	n/a	n/a	n/a	n/a	n/a	n/a	n/a	n/a	n/a	n/a	n/a	n/a	n/a	n/a	n/a	n/a	n/a	n/a	n/a	n/a	n/a	n/a	n/a	n/a	n/a	n/a	n/a	n/a	n/a	n/a	n/a	n/a	n/a	n/a	n/a	n/a	n/a	n/a	n/a	n/a	n/a	n/a	n/a	n/a	n/a	n/a	n/a	n/a	n/a	n/a	n/a	n/a	n/a	n/a	n/a	n/a	n/a	n/a	n/a	n/a	n/a	n/a	n/a	n/a	n/a	n/a	n/a	n/a	n/a	n/a	n/a	A4_05.jpg	500	0	767504	-1	767504	0	TrialProc1	A4HighLargeEDBlockList	2500	0	765005	0	765005	233	765005	2499	d	996	766001	146.18
149	2.5	000_R01_VA_allProc	55	1	"<?xml version=""1.0""?>\n<Clock xmlns:dt=""urn:schemas-microsoft-com:datatypes""><Description dt:dt=""string"">E-Prime Primary Realtime Clock</Description><StartTime><Timestamp dt:dt=""int"">0</Timestamp><DateUtc dt:dt=""string"">2019-03-12T21:13:27Z</DateUtc></StartTime><FrequencyChanges><FrequencyChange><Frequency dt:dt=""r8"">3020419</Frequency><Timestamp dt:dt=""r8"">64589161874</Timestamp><Current dt:dt=""r8"">0</Current><DateUtc dt:dt=""string"">2019-03-12T21:13:27Z</DateUtc></FrequencyChange></FrequencyChanges></Clock>\n"	000_R01_VA_allProc-55-1	60.023	1.0.0.183	1	165230316	Professional	2.0.10.356	2.0.10.356	03-12-2019	3/12/2019 9:13:27 PM	17:13:27	2.0.10.252	3	0	0	618826	8	618826	3999	-999999	853710	-3	779000	0	Run4Proc	3	1	3	RunList	6	HighLargeED	8000	0	771003	0	771003	0	771003	0	A4HighLargeEDBlockProc	n/a	n/a	n/a	n/a	n/a	n/a	n/a	n/a	n/a	6.0	1.0	6.0	n/a	n/a	n/a	Run4BlockList	6	n/a	n/a	n/a	n/a	n/a	n/a	n/a	n/a	n/a	6.0	1.0	6.0	n/a	n/a	n/a	n/a	n/a	n/a	n/a	n/a	n/a	n/a	n/a	n/a	n/a	n/a	n/a	n/a	n/a	n/a	n/a	n/a	n/a	n/a	n/a	n/a	n/a	n/a	n/a	n/a	n/a	n/a	n/a	n/a	n/a	n/a	n/a	n/a	n/a	n/a	n/a	n/a	n/a	n/a	n/a	n/a	n/a	n/a	n/a	n/a	n/a	n/a	n/a	n/a	n/a	n/a	n/a	n/a	n/a	n/a	n/a	n/a	n/a	n/a	n/a	n/a	n/a	n/a	n/a	n/a	n/a	n/a	n/a	n/a	n/a	n/a	n/a	n/a	n/a	n/a	A4_06.jpg	500	0	770503	-1	770503	0	TrialProc1	A4HighLargeEDBlockList	2500	0	768004	0	768004	0	768004	2499	d	861	768865	149.179
