onset	duration	experiment_name	sub	ses	clock_information	datafile_basename	display_refreshrate	experiment_version	group	randomseed	runtime_capabilities	runtime_version	runtimeversionexpected	session_date	session_start_date_time_utc	session_time	studio_version	block	fixation2trs_durationerror	fixation2trs_offsetdelay	fixation2trs_offsettime	fixation2trs_onsetdelay	fixation2trs_onsettime	fixation2trs_onsettoonsettime	goodwork_durationerror	goodwork_finishtime	goodwork_onsetdelay	goodwork_onsettime	goodwork_onsettoonsettime	procedure_block	runlist	runlist_cycle	runlist_sample	running_block	trial	condition	interblockinterval_duration	interblockinterval_durationerror	interblockinterval_finishtime	interblockinterval_offsetdelay	interblockinterval_offsettime	interblockinterval_onsetdelay	interblockinterval_onsettime	interblockinterval_onsettoonsettime	procedure_trial	run1blocklist	run1blocklist_cycle	run1blocklist_sample	run2blocklist	run2blocklist_cycle	run2blocklist_sample	run3blocklist	run3blocklist_cycle	run3blocklist_sample	run4blocklist	run4blocklist_cycle	run4blocklist_sample	run5blocklist	run5blocklist_cycle	run5blocklist_sample	running_trial	subtrial	a1highlargeedblocklist	a1highlargeedblocklist_cycle	a1highlargeedblocklist_sample	a2highlargeedblocklist	a2highlargeedblocklist_cycle	a2highlargeedblocklist_sample	a3highlargeedblocklist	a3highlargeedblocklist_cycle	a3highlargeedblocklist_sample	a4highlargeedblocklist	a4highlargeedblocklist_cycle	a4highlargeedblocklist_sample	a5highlargeedblocklist	a5highlargeedblocklist_cycle	a5highlargeedblocklist_sample	b1highsmalledblocklist	b1highsmalledblocklist_cycle	b1highsmalledblocklist_sample	b2highsmalledblocklist	b2highsmalledblocklist_cycle	b2highsmalledblocklist_sample	b3highsmalledblocklist	b3highsmalledblocklist_cycle	b3highsmalledblocklist_sample	b4highsmalledblocklist	b4highsmalledblocklist_cycle	b4highsmalledblocklist_sample	b5highsmalledblocklist	b5highsmalledblocklist_cycle	b5highsmalledblocklist_sample	c1lowlargeedblocklist	c1lowlargeedblocklist_cycle	c1lowlargeedblocklist_sample	c2lowlargeedblocklist	c2lowlargeedblocklist_cycle	c2lowlargeedblocklist_sample	c3lowlargeedblocklist	c3lowlargeedblocklist_cycle	c3lowlargeedblocklist_sample	c4lowlargeedblocklist	c4lowlargeedblocklist_cycle	c4lowlargeedblocklist_sample	c5lowlargeedblocklist	c5lowlargeedblocklist_cycle	c5lowlargeedblocklist_sample	d1lowsmalledblocklist	d1lowsmalledblocklist_cycle	d1lowsmalledblocklist_sample	d2highlargeedblocklist	d2highlargeedblocklist_cycle	d2highlargeedblocklist_sample	d3lowsmalledblocklist	d3lowsmalledblocklist_cycle	d3lowsmalledblocklist_sample	d4lowsmalledblocklist	d4lowsmalledblocklist_cycle	d4lowsmalledblocklist_sample	d5lowsmalledblocklist	d5lowsmalledblocklist_cycle	d5lowsmalledblocklist_sample	e1officelargeblocklist	e1officelargeblocklist_cycle	e1officelargeblocklist_sample	e2officelargeblocklist	e2officelargeblocklist_cycle	e2officelargeblocklist_sample	e3officelargeblocklist	e3officelargeblocklist_cycle	e3officelargeblocklist_sample	e4officelargeblocklist	e4officelargeblocklist_cycle	e4officelargeblocklist_sample	e5officelargeblocklist	e5officelargeblocklist_cycle	e5officelargeblocklist_sample	f1officesmallblocklist	f1officesmallblocklist_cycle	f1officesmallblocklist_sample	f2officesmallblocklist	f2officesmallblocklist_cycle	f2officesmallblocklist_sample	f3officesmallblocklist	f3officesmallblocklist_cycle	f3officesmallblocklist_sample	f4officesmallblocklist	f4officesmallblocklist_cycle	f4officesmallblocklist_sample	f5officesmallblocklist	f5officesmallblocklist_cycle	f5officesmallblocklist_sample	filename	isi_duration	isi_durationerror	isi_finishtime	isi_onsetdelay	isi_onsettime	isi_onsettoonsettime	procedure_subtrial	running_subtrial	stimslide_duration	stimslide_durationerror	stimslide_finishtime	stimslide_offsetdelay	stimslide_offsettime	stimslide_onsetdelay	stimslide_onsettime	stimslide_onsettoonsettime	stimslide_resp	stimslide_rt	stimslide_rttime	onset_unrounded
4	2.5	000_R01_VA_allProc	123	1	"<?xml version=""1.0""?>\n<Clock xmlns:dt=""urn:schemas-microsoft-com:datatypes""><Description dt:dt=""string"">E-Prime Primary Realtime Clock</Description><StartTime><Timestamp dt:dt=""int"">0</Timestamp><DateUtc dt:dt=""string"">2021-11-11T00:16:53Z</DateUtc></StartTime><FrequencyChanges><FrequencyChange><Frequency dt:dt=""r8"">3020410</Frequency><Timestamp dt:dt=""r8"">3729533400740</Timestamp><Current dt:dt=""r8"">0</Current><DateUtc dt:dt=""string"">2021-11-11T00:16:53Z</DateUtc></FrequencyChange></FrequencyChanges></Clock>\n"	000_R01_VA_allProc-123-1	60.001	1.0.0.229	1	1502401781	Professional	2.0.10.356	2.0.10.356	11-10-2021	n/a	19:16:53	2.0.10.252	3	0	0	448107	15	448107	4000	-999999	611313	0	608137	0	Run4Proc	3	1	3	RunList	1	OfficeSmall	8000	0	470107	0	470107	0	470107	0	F4OfficeSmallBlockProc	n/a	n/a	n/a	n/a	n/a	n/a	n/a	n/a	n/a	1.0	1.0	1.0	n/a	n/a	n/a	Run4BlockList	1	n/a	n/a	n/a	n/a	n/a	n/a	n/a	n/a	n/a	n/a	n/a	n/a	n/a	n/a	n/a	n/a	n/a	n/a	n/a	n/a	n/a	n/a	n/a	n/a	n/a	n/a	n/a	n/a	n/a	n/a	n/a	n/a	n/a	n/a	n/a	n/a	n/a	n/a	n/a	n/a	n/a	n/a	n/a	n/a	n/a	n/a	n/a	n/a	n/a	n/a	n/a	n/a	n/a	n/a	n/a	n/a	n/a	n/a	n/a	n/a	n/a	n/a	n/a	n/a	n/a	n/a	n/a	n/a	n/a	n/a	n/a	n/a	n/a	n/a	n/a	n/a	n/a	n/a	n/a	n/a	n/a	n/a	n/a	n/a	1.0	1.0	1.0	n/a	n/a	n/a	F4_01.jpg	500	0	454607	0	454607	0	TrialProc1	F4OfficeSmallBlockList	2500	0	452107	0	452107	0	452107	2500	d	1433	453540	4.0
7	2.5	000_R01_VA_allProc	123	1	"<?xml version=""1.0""?>\n<Clock xmlns:dt=""urn:schemas-microsoft-com:datatypes""><Description dt:dt=""string"">E-Prime Primary Realtime Clock</Description><StartTime><Timestamp dt:dt=""int"">0</Timestamp><DateUtc dt:dt=""string"">2021-11-11T00:16:53Z</DateUtc></StartTime><FrequencyChanges><FrequencyChange><Frequency dt:dt=""r8"">3020410</Frequency><Timestamp dt:dt=""r8"">3729533400740</Timestamp><Current dt:dt=""r8"">0</Current><DateUtc dt:dt=""string"">2021-11-11T00:16:53Z</DateUtc></FrequencyChange></FrequencyChanges></Clock>\n"	000_R01_VA_allProc-123-1	60.001	1.0.0.229	1	1502401781	Professional	2.0.10.356	2.0.10.356	11-10-2021	n/a	19:16:53	2.0.10.252	3	0	0	448107	15	448107	4000	-999999	611313	0	608137	0	Run4Proc	3	1	3	RunList	1	OfficeSmall	8000	0	470107	0	470107	0	470107	0	F4OfficeSmallBlockProc	n/a	n/a	n/a	n/a	n/a	n/a	n/a	n/a	n/a	1.0	1.0	1.0	n/a	n/a	n/a	Run4BlockList	2	n/a	n/a	n/a	n/a	n/a	n/a	n/a	n/a	n/a	n/a	n/a	n/a	n/a	n/a	n/a	n/a	n/a	n/a	n/a	n/a	n/a	n/a	n/a	n/a	n/a	n/a	n/a	n/a	n/a	n/a	n/a	n/a	n/a	n/a	n/a	n/a	n/a	n/a	n/a	n/a	n/a	n/a	n/a	n/a	n/a	n/a	n/a	n/a	n/a	n/a	n/a	n/a	n/a	n/a	n/a	n/a	n/a	n/a	n/a	n/a	n/a	n/a	n/a	n/a	n/a	n/a	n/a	n/a	n/a	n/a	n/a	n/a	n/a	n/a	n/a	n/a	n/a	n/a	n/a	n/a	n/a	n/a	n/a	n/a	2.0	1.0	2.0	n/a	n/a	n/a	F4_02.jpg	500	0	457607	0	457607	0	TrialProc1	F4OfficeSmallBlockList	2500	0	455107	0	455107	0	455107	2500	d	577	455684	7.0
10	2.5	000_R01_VA_allProc	123	1	"<?xml version=""1.0""?>\n<Clock xmlns:dt=""urn:schemas-microsoft-com:datatypes""><Description dt:dt=""string"">E-Prime Primary Realtime Clock</Description><StartTime><Timestamp dt:dt=""int"">0</Timestamp><DateUtc dt:dt=""string"">2021-11-11T00:16:53Z</DateUtc></StartTime><FrequencyChanges><FrequencyChange><Frequency dt:dt=""r8"">3020410</Frequency><Timestamp dt:dt=""r8"">3729533400740</Timestamp><Current dt:dt=""r8"">0</Current><DateUtc dt:dt=""string"">2021-11-11T00:16:53Z</DateUtc></FrequencyChange></FrequencyChanges></Clock>\n"	000_R01_VA_allProc-123-1	60.001	1.0.0.229	1	1502401781	Professional	2.0.10.356	2.0.10.356	11-10-2021	n/a	19:16:53	2.0.10.252	3	0	0	448107	15	448107	4000	-999999	611313	0	608137	0	Run4Proc	3	1	3	RunList	1	OfficeSmall	8000	0	470107	0	470107	0	470107	0	F4OfficeSmallBlockProc	n/a	n/a	n/a	n/a	n/a	n/a	n/a	n/a	n/a	1.0	1.0	1.0	n/a	n/a	n/a	Run4BlockList	3	n/a	n/a	n/a	n/a	n/a	n/a	n/a	n/a	n/a	n/a	n/a	n/a	n/a	n/a	n/a	n/a	n/a	n/a	n/a	n/a	n/a	n/a	n/a	n/a	n/a	n/a	n/a	n/a	n/a	n/a	n/a	n/a	n/a	n/a	n/a	n/a	n/a	n/a	n/a	n/a	n/a	n/a	n/a	n/a	n/a	n/a	n/a	n/a	n/a	n/a	n/a	n/a	n/a	n/a	n/a	n/a	n/a	n/a	n/a	n/a	n/a	n/a	n/a	n/a	n/a	n/a	n/a	n/a	n/a	n/a	n/a	n/a	n/a	n/a	n/a	n/a	n/a	n/a	n/a	n/a	n/a	n/a	n/a	n/a	3.0	1.0	3.0	n/a	n/a	n/a	F4_03.jpg	500	0	460607	0	460607	0	TrialProc1	F4OfficeSmallBlockList	2500	0	458107	0	458107	0	458107	2500	d	441	458548	10.0
13	2.5	000_R01_VA_allProc	123	1	"<?xml version=""1.0""?>\n<Clock xmlns:dt=""urn:schemas-microsoft-com:datatypes""><Description dt:dt=""string"">E-Prime Primary Realtime Clock</Description><StartTime><Timestamp dt:dt=""int"">0</Timestamp><DateUtc dt:dt=""string"">2021-11-11T00:16:53Z</DateUtc></StartTime><FrequencyChanges><FrequencyChange><Frequency dt:dt=""r8"">3020410</Frequency><Timestamp dt:dt=""r8"">3729533400740</Timestamp><Current dt:dt=""r8"">0</Current><DateUtc dt:dt=""string"">2021-11-11T00:16:53Z</DateUtc></FrequencyChange></FrequencyChanges></Clock>\n"	000_R01_VA_allProc-123-1	60.001	1.0.0.229	1	1502401781	Professional	2.0.10.356	2.0.10.356	11-10-2021	n/a	19:16:53	2.0.10.252	3	0	0	448107	15	448107	4000	-999999	611313	0	608137	0	Run4Proc	3	1	3	RunList	1	OfficeSmall	8000	0	470107	0	470107	0	470107	0	F4OfficeSmallBlockProc	n/a	n/a	n/a	n/a	n/a	n/a	n/a	n/a	n/a	1.0	1.0	1.0	n/a	n/a	n/a	Run4BlockList	4	n/a	n/a	n/a	n/a	n/a	n/a	n/a	n/a	n/a	n/a	n/a	n/a	n/a	n/a	n/a	n/a	n/a	n/a	n/a	n/a	n/a	n/a	n/a	n/a	n/a	n/a	n/a	n/a	n/a	n/a	n/a	n/a	n/a	n/a	n/a	n/a	n/a	n/a	n/a	n/a	n/a	n/a	n/a	n/a	n/a	n/a	n/a	n/a	n/a	n/a	n/a	n/a	n/a	n/a	n/a	n/a	n/a	n/a	n/a	n/a	n/a	n/a	n/a	n/a	n/a	n/a	n/a	n/a	n/a	n/a	n/a	n/a	n/a	n/a	n/a	n/a	n/a	n/a	n/a	n/a	n/a	n/a	n/a	n/a	4.0	1.0	4.0	n/a	n/a	n/a	F4_04.jpg	500	0	463607	0	463607	0	TrialProc1	F4OfficeSmallBlockList	2500	0	461107	0	461107	0	461107	2500	c	1425	462532	13.0
16	2.5	000_R01_VA_allProc	123	1	"<?xml version=""1.0""?>\n<Clock xmlns:dt=""urn:schemas-microsoft-com:datatypes""><Description dt:dt=""string"">E-Prime Primary Realtime Clock</Description><StartTime><Timestamp dt:dt=""int"">0</Timestamp><DateUtc dt:dt=""string"">2021-11-11T00:16:53Z</DateUtc></StartTime><FrequencyChanges><FrequencyChange><Frequency dt:dt=""r8"">3020410</Frequency><Timestamp dt:dt=""r8"">3729533400740</Timestamp><Current dt:dt=""r8"">0</Current><DateUtc dt:dt=""string"">2021-11-11T00:16:53Z</DateUtc></FrequencyChange></FrequencyChanges></Clock>\n"	000_R01_VA_allProc-123-1	60.001	1.0.0.229	1	1502401781	Professional	2.0.10.356	2.0.10.356	11-10-2021	n/a	19:16:53	2.0.10.252	3	0	0	448107	15	448107	4000	-999999	611313	0	608137	0	Run4Proc	3	1	3	RunList	1	OfficeSmall	8000	0	470107	0	470107	0	470107	0	F4OfficeSmallBlockProc	n/a	n/a	n/a	n/a	n/a	n/a	n/a	n/a	n/a	1.0	1.0	1.0	n/a	n/a	n/a	Run4BlockList	5	n/a	n/a	n/a	n/a	n/a	n/a	n/a	n/a	n/a	n/a	n/a	n/a	n/a	n/a	n/a	n/a	n/a	n/a	n/a	n/a	n/a	n/a	n/a	n/a	n/a	n/a	n/a	n/a	n/a	n/a	n/a	n/a	n/a	n/a	n/a	n/a	n/a	n/a	n/a	n/a	n/a	n/a	n/a	n/a	n/a	n/a	n/a	n/a	n/a	n/a	n/a	n/a	n/a	n/a	n/a	n/a	n/a	n/a	n/a	n/a	n/a	n/a	n/a	n/a	n/a	n/a	n/a	n/a	n/a	n/a	n/a	n/a	n/a	n/a	n/a	n/a	n/a	n/a	n/a	n/a	n/a	n/a	n/a	n/a	5.0	1.0	5.0	n/a	n/a	n/a	F4_05.jpg	500	0	466607	0	466607	0	TrialProc1	F4OfficeSmallBlockList	2500	0	464107	0	464107	0	464107	2500	d	1665	465772	16.0
19	2.5	000_R01_VA_allProc	123	1	"<?xml version=""1.0""?>\n<Clock xmlns:dt=""urn:schemas-microsoft-com:datatypes""><Description dt:dt=""string"">E-Prime Primary Realtime Clock</Description><StartTime><Timestamp dt:dt=""int"">0</Timestamp><DateUtc dt:dt=""string"">2021-11-11T00:16:53Z</DateUtc></StartTime><FrequencyChanges><FrequencyChange><Frequency dt:dt=""r8"">3020410</Frequency><Timestamp dt:dt=""r8"">3729533400740</Timestamp><Current dt:dt=""r8"">0</Current><DateUtc dt:dt=""string"">2021-11-11T00:16:53Z</DateUtc></FrequencyChange></FrequencyChanges></Clock>\n"	000_R01_VA_allProc-123-1	60.001	1.0.0.229	1	1502401781	Professional	2.0.10.356	2.0.10.356	11-10-2021	n/a	19:16:53	2.0.10.252	3	0	0	448107	15	448107	4000	-999999	611313	0	608137	0	Run4Proc	3	1	3	RunList	1	OfficeSmall	8000	0	470107	0	470107	0	470107	0	F4OfficeSmallBlockProc	n/a	n/a	n/a	n/a	n/a	n/a	n/a	n/a	n/a	1.0	1.0	1.0	n/a	n/a	n/a	Run4BlockList	6	n/a	n/a	n/a	n/a	n/a	n/a	n/a	n/a	n/a	n/a	n/a	n/a	n/a	n/a	n/a	n/a	n/a	n/a	n/a	n/a	n/a	n/a	n/a	n/a	n/a	n/a	n/a	n/a	n/a	n/a	n/a	n/a	n/a	n/a	n/a	n/a	n/a	n/a	n/a	n/a	n/a	n/a	n/a	n/a	n/a	n/a	n/a	n/a	n/a	n/a	n/a	n/a	n/a	n/a	n/a	n/a	n/a	n/a	n/a	n/a	n/a	n/a	n/a	n/a	n/a	n/a	n/a	n/a	n/a	n/a	n/a	n/a	n/a	n/a	n/a	n/a	n/a	n/a	n/a	n/a	n/a	n/a	n/a	n/a	6.0	1.0	6.0	n/a	n/a	n/a	F4_06.jpg	500	0	469607	0	469607	0	TrialProc1	F4OfficeSmallBlockList	2500	0	467107	0	467107	0	467107	2500	d	1081	468188	19.0
30	2.5	000_R01_VA_allProc	123	1	"<?xml version=""1.0""?>\n<Clock xmlns:dt=""urn:schemas-microsoft-com:datatypes""><Description dt:dt=""string"">E-Prime Primary Realtime Clock</Description><StartTime><Timestamp dt:dt=""int"">0</Timestamp><DateUtc dt:dt=""string"">2021-11-11T00:16:53Z</DateUtc></StartTime><FrequencyChanges><FrequencyChange><Frequency dt:dt=""r8"">3020410</Frequency><Timestamp dt:dt=""r8"">3729533400740</Timestamp><Current dt:dt=""r8"">0</Current><DateUtc dt:dt=""string"">2021-11-11T00:16:53Z</DateUtc></FrequencyChange></FrequencyChanges></Clock>\n"	000_R01_VA_allProc-123-1	60.001	1.0.0.229	1	1502401781	Professional	2.0.10.356	2.0.10.356	11-10-2021	n/a	19:16:53	2.0.10.252	3	0	0	448107	15	448107	4000	-999999	611313	0	608137	0	Run4Proc	3	1	3	RunList	2	HighSmallED	8000	0	496106	0	496106	0	496106	0	B4HighSmallEDBlockProc	n/a	n/a	n/a	n/a	n/a	n/a	n/a	n/a	n/a	2.0	1.0	2.0	n/a	n/a	n/a	Run4BlockList	1	n/a	n/a	n/a	n/a	n/a	n/a	n/a	n/a	n/a	n/a	n/a	n/a	n/a	n/a	n/a	n/a	n/a	n/a	n/a	n/a	n/a	n/a	n/a	n/a	1.0	1.0	1.0	n/a	n/a	n/a	n/a	n/a	n/a	n/a	n/a	n/a	n/a	n/a	n/a	n/a	n/a	n/a	n/a	n/a	n/a	n/a	n/a	n/a	n/a	n/a	n/a	n/a	n/a	n/a	n/a	n/a	n/a	n/a	n/a	n/a	n/a	n/a	n/a	n/a	n/a	n/a	n/a	n/a	n/a	n/a	n/a	n/a	n/a	n/a	n/a	n/a	n/a	n/a	n/a	n/a	n/a	n/a	n/a	n/a	n/a	n/a	n/a	n/a	n/a	n/a	B4_01.jpg	500	0	480607	0	480607	0	TrialProc1	B4HighSmallEDBlockList	2500	0	478107	0	478107	0	478107	2500	d	625	478732	30.0
33	2.5	000_R01_VA_allProc	123	1	"<?xml version=""1.0""?>\n<Clock xmlns:dt=""urn:schemas-microsoft-com:datatypes""><Description dt:dt=""string"">E-Prime Primary Realtime Clock</Description><StartTime><Timestamp dt:dt=""int"">0</Timestamp><DateUtc dt:dt=""string"">2021-11-11T00:16:53Z</DateUtc></StartTime><FrequencyChanges><FrequencyChange><Frequency dt:dt=""r8"">3020410</Frequency><Timestamp dt:dt=""r8"">3729533400740</Timestamp><Current dt:dt=""r8"">0</Current><DateUtc dt:dt=""string"">2021-11-11T00:16:53Z</DateUtc></FrequencyChange></FrequencyChanges></Clock>\n"	000_R01_VA_allProc-123-1	60.001	1.0.0.229	1	1502401781	Professional	2.0.10.356	2.0.10.356	11-10-2021	n/a	19:16:53	2.0.10.252	3	0	0	448107	15	448107	4000	-999999	611313	0	608137	0	Run4Proc	3	1	3	RunList	2	HighSmallED	8000	0	496106	0	496106	0	496106	0	B4HighSmallEDBlockProc	n/a	n/a	n/a	n/a	n/a	n/a	n/a	n/a	n/a	2.0	1.0	2.0	n/a	n/a	n/a	Run4BlockList	2	n/a	n/a	n/a	n/a	n/a	n/a	n/a	n/a	n/a	n/a	n/a	n/a	n/a	n/a	n/a	n/a	n/a	n/a	n/a	n/a	n/a	n/a	n/a	n/a	2.0	1.0	2.0	n/a	n/a	n/a	n/a	n/a	n/a	n/a	n/a	n/a	n/a	n/a	n/a	n/a	n/a	n/a	n/a	n/a	n/a	n/a	n/a	n/a	n/a	n/a	n/a	n/a	n/a	n/a	n/a	n/a	n/a	n/a	n/a	n/a	n/a	n/a	n/a	n/a	n/a	n/a	n/a	n/a	n/a	n/a	n/a	n/a	n/a	n/a	n/a	n/a	n/a	n/a	n/a	n/a	n/a	n/a	n/a	n/a	n/a	n/a	n/a	n/a	n/a	n/a	B4_02.jpg	500	0	483607	0	483607	0	TrialProc1	B4HighSmallEDBlockList	2500	0	481107	0	481107	0	481107	2500	d	689	481796	33.0
36	2.5	000_R01_VA_allProc	123	1	"<?xml version=""1.0""?>\n<Clock xmlns:dt=""urn:schemas-microsoft-com:datatypes""><Description dt:dt=""string"">E-Prime Primary Realtime Clock</Description><StartTime><Timestamp dt:dt=""int"">0</Timestamp><DateUtc dt:dt=""string"">2021-11-11T00:16:53Z</DateUtc></StartTime><FrequencyChanges><FrequencyChange><Frequency dt:dt=""r8"">3020410</Frequency><Timestamp dt:dt=""r8"">3729533400740</Timestamp><Current dt:dt=""r8"">0</Current><DateUtc dt:dt=""string"">2021-11-11T00:16:53Z</DateUtc></FrequencyChange></FrequencyChanges></Clock>\n"	000_R01_VA_allProc-123-1	60.001	1.0.0.229	1	1502401781	Professional	2.0.10.356	2.0.10.356	11-10-2021	n/a	19:16:53	2.0.10.252	3	0	0	448107	15	448107	4000	-999999	611313	0	608137	0	Run4Proc	3	1	3	RunList	2	HighSmallED	8000	0	496106	0	496106	0	496106	0	B4HighSmallEDBlockProc	n/a	n/a	n/a	n/a	n/a	n/a	n/a	n/a	n/a	2.0	1.0	2.0	n/a	n/a	n/a	Run4BlockList	3	n/a	n/a	n/a	n/a	n/a	n/a	n/a	n/a	n/a	n/a	n/a	n/a	n/a	n/a	n/a	n/a	n/a	n/a	n/a	n/a	n/a	n/a	n/a	n/a	3.0	1.0	3.0	n/a	n/a	n/a	n/a	n/a	n/a	n/a	n/a	n/a	n/a	n/a	n/a	n/a	n/a	n/a	n/a	n/a	n/a	n/a	n/a	n/a	n/a	n/a	n/a	n/a	n/a	n/a	n/a	n/a	n/a	n/a	n/a	n/a	n/a	n/a	n/a	n/a	n/a	n/a	n/a	n/a	n/a	n/a	n/a	n/a	n/a	n/a	n/a	n/a	n/a	n/a	n/a	n/a	n/a	n/a	n/a	n/a	n/a	n/a	n/a	n/a	n/a	n/a	B4_03.jpg	500	0	486607	0	486607	0	TrialProc1	B4HighSmallEDBlockList	2500	0	484107	0	484107	0	484107	2500	d	753	484860	36.0
39	2.5	000_R01_VA_allProc	123	1	"<?xml version=""1.0""?>\n<Clock xmlns:dt=""urn:schemas-microsoft-com:datatypes""><Description dt:dt=""string"">E-Prime Primary Realtime Clock</Description><StartTime><Timestamp dt:dt=""int"">0</Timestamp><DateUtc dt:dt=""string"">2021-11-11T00:16:53Z</DateUtc></StartTime><FrequencyChanges><FrequencyChange><Frequency dt:dt=""r8"">3020410</Frequency><Timestamp dt:dt=""r8"">3729533400740</Timestamp><Current dt:dt=""r8"">0</Current><DateUtc dt:dt=""string"">2021-11-11T00:16:53Z</DateUtc></FrequencyChange></FrequencyChanges></Clock>\n"	000_R01_VA_allProc-123-1	60.001	1.0.0.229	1	1502401781	Professional	2.0.10.356	2.0.10.356	11-10-2021	n/a	19:16:53	2.0.10.252	3	0	0	448107	15	448107	4000	-999999	611313	0	608137	0	Run4Proc	3	1	3	RunList	2	HighSmallED	8000	0	496106	0	496106	0	496106	0	B4HighSmallEDBlockProc	n/a	n/a	n/a	n/a	n/a	n/a	n/a	n/a	n/a	2.0	1.0	2.0	n/a	n/a	n/a	Run4BlockList	4	n/a	n/a	n/a	n/a	n/a	n/a	n/a	n/a	n/a	n/a	n/a	n/a	n/a	n/a	n/a	n/a	n/a	n/a	n/a	n/a	n/a	n/a	n/a	n/a	4.0	1.0	4.0	n/a	n/a	n/a	n/a	n/a	n/a	n/a	n/a	n/a	n/a	n/a	n/a	n/a	n/a	n/a	n/a	n/a	n/a	n/a	n/a	n/a	n/a	n/a	n/a	n/a	n/a	n/a	n/a	n/a	n/a	n/a	n/a	n/a	n/a	n/a	n/a	n/a	n/a	n/a	n/a	n/a	n/a	n/a	n/a	n/a	n/a	n/a	n/a	n/a	n/a	n/a	n/a	n/a	n/a	n/a	n/a	n/a	n/a	n/a	n/a	n/a	n/a	n/a	B4_04.jpg	500	1	489607	-1	489606	0	TrialProc1	B4HighSmallEDBlockList	2500	0	487107	0	487107	0	487107	2499	d	697	487804	39.0
42	2.5	000_R01_VA_allProc	123	1	"<?xml version=""1.0""?>\n<Clock xmlns:dt=""urn:schemas-microsoft-com:datatypes""><Description dt:dt=""string"">E-Prime Primary Realtime Clock</Description><StartTime><Timestamp dt:dt=""int"">0</Timestamp><DateUtc dt:dt=""string"">2021-11-11T00:16:53Z</DateUtc></StartTime><FrequencyChanges><FrequencyChange><Frequency dt:dt=""r8"">3020410</Frequency><Timestamp dt:dt=""r8"">3729533400740</Timestamp><Current dt:dt=""r8"">0</Current><DateUtc dt:dt=""string"">2021-11-11T00:16:53Z</DateUtc></FrequencyChange></FrequencyChanges></Clock>\n"	000_R01_VA_allProc-123-1	60.001	1.0.0.229	1	1502401781	Professional	2.0.10.356	2.0.10.356	11-10-2021	n/a	19:16:53	2.0.10.252	3	0	0	448107	15	448107	4000	-999999	611313	0	608137	0	Run4Proc	3	1	3	RunList	2	HighSmallED	8000	0	496106	0	496106	0	496106	0	B4HighSmallEDBlockProc	n/a	n/a	n/a	n/a	n/a	n/a	n/a	n/a	n/a	2.0	1.0	2.0	n/a	n/a	n/a	Run4BlockList	5	n/a	n/a	n/a	n/a	n/a	n/a	n/a	n/a	n/a	n/a	n/a	n/a	n/a	n/a	n/a	n/a	n/a	n/a	n/a	n/a	n/a	n/a	n/a	n/a	5.0	1.0	5.0	n/a	n/a	n/a	n/a	n/a	n/a	n/a	n/a	n/a	n/a	n/a	n/a	n/a	n/a	n/a	n/a	n/a	n/a	n/a	n/a	n/a	n/a	n/a	n/a	n/a	n/a	n/a	n/a	n/a	n/a	n/a	n/a	n/a	n/a	n/a	n/a	n/a	n/a	n/a	n/a	n/a	n/a	n/a	n/a	n/a	n/a	n/a	n/a	n/a	n/a	n/a	n/a	n/a	n/a	n/a	n/a	n/a	n/a	n/a	n/a	n/a	n/a	n/a	B4_05.jpg	500	0	492606	0	492606	0	TrialProc1	B4HighSmallEDBlockList	2500	1	490107	1	490107	0	490106	2500	d	1026	491132	41.999
45	2.5	000_R01_VA_allProc	123	1	"<?xml version=""1.0""?>\n<Clock xmlns:dt=""urn:schemas-microsoft-com:datatypes""><Description dt:dt=""string"">E-Prime Primary Realtime Clock</Description><StartTime><Timestamp dt:dt=""int"">0</Timestamp><DateUtc dt:dt=""string"">2021-11-11T00:16:53Z</DateUtc></StartTime><FrequencyChanges><FrequencyChange><Frequency dt:dt=""r8"">3020410</Frequency><Timestamp dt:dt=""r8"">3729533400740</Timestamp><Current dt:dt=""r8"">0</Current><DateUtc dt:dt=""string"">2021-11-11T00:16:53Z</DateUtc></FrequencyChange></FrequencyChanges></Clock>\n"	000_R01_VA_allProc-123-1	60.001	1.0.0.229	1	1502401781	Professional	2.0.10.356	2.0.10.356	11-10-2021	n/a	19:16:53	2.0.10.252	3	0	0	448107	15	448107	4000	-999999	611313	0	608137	0	Run4Proc	3	1	3	RunList	2	HighSmallED	8000	0	496106	0	496106	0	496106	0	B4HighSmallEDBlockProc	n/a	n/a	n/a	n/a	n/a	n/a	n/a	n/a	n/a	2.0	1.0	2.0	n/a	n/a	n/a	Run4BlockList	6	n/a	n/a	n/a	n/a	n/a	n/a	n/a	n/a	n/a	n/a	n/a	n/a	n/a	n/a	n/a	n/a	n/a	n/a	n/a	n/a	n/a	n/a	n/a	n/a	6.0	1.0	6.0	n/a	n/a	n/a	n/a	n/a	n/a	n/a	n/a	n/a	n/a	n/a	n/a	n/a	n/a	n/a	n/a	n/a	n/a	n/a	n/a	n/a	n/a	n/a	n/a	n/a	n/a	n/a	n/a	n/a	n/a	n/a	n/a	n/a	n/a	n/a	n/a	n/a	n/a	n/a	n/a	n/a	n/a	n/a	n/a	n/a	n/a	n/a	n/a	n/a	n/a	n/a	n/a	n/a	n/a	n/a	n/a	n/a	n/a	n/a	n/a	n/a	n/a	n/a	B4_06.jpg	500	0	495606	0	495606	0	TrialProc1	B4HighSmallEDBlockList	2500	0	493106	0	493106	0	493106	2500	d	1074	494180	44.999
56	2.5	000_R01_VA_allProc	123	1	"<?xml version=""1.0""?>\n<Clock xmlns:dt=""urn:schemas-microsoft-com:datatypes""><Description dt:dt=""string"">E-Prime Primary Realtime Clock</Description><StartTime><Timestamp dt:dt=""int"">0</Timestamp><DateUtc dt:dt=""string"">2021-11-11T00:16:53Z</DateUtc></StartTime><FrequencyChanges><FrequencyChange><Frequency dt:dt=""r8"">3020410</Frequency><Timestamp dt:dt=""r8"">3729533400740</Timestamp><Current dt:dt=""r8"">0</Current><DateUtc dt:dt=""string"">2021-11-11T00:16:53Z</DateUtc></FrequencyChange></FrequencyChanges></Clock>\n"	000_R01_VA_allProc-123-1	60.001	1.0.0.229	1	1502401781	Professional	2.0.10.356	2.0.10.356	11-10-2021	n/a	19:16:53	2.0.10.252	3	0	0	448107	15	448107	4000	-999999	611313	0	608137	0	Run4Proc	3	1	3	RunList	3	LowLargeED	8000	0	522106	0	522106	0	522106	0	C4LowLargeEDBlockProc	n/a	n/a	n/a	n/a	n/a	n/a	n/a	n/a	n/a	3.0	1.0	3.0	n/a	n/a	n/a	Run4BlockList	1	n/a	n/a	n/a	n/a	n/a	n/a	n/a	n/a	n/a	n/a	n/a	n/a	n/a	n/a	n/a	n/a	n/a	n/a	n/a	n/a	n/a	n/a	n/a	n/a	n/a	n/a	n/a	n/a	n/a	n/a	n/a	n/a	n/a	n/a	n/a	n/a	n/a	n/a	n/a	1.0	1.0	1.0	n/a	n/a	n/a	n/a	n/a	n/a	n/a	n/a	n/a	n/a	n/a	n/a	n/a	n/a	n/a	n/a	n/a	n/a	n/a	n/a	n/a	n/a	n/a	n/a	n/a	n/a	n/a	n/a	n/a	n/a	n/a	n/a	n/a	n/a	n/a	n/a	n/a	n/a	n/a	n/a	n/a	n/a	n/a	n/a	n/a	n/a	n/a	n/a	C4_01.jpg	500	0	506606	0	506606	0	TrialProc1	C4LowLargeEDBlockList	2500	0	504106	0	504106	0	504106	2500	d	1185	505291	55.999
59	2.5	000_R01_VA_allProc	123	1	"<?xml version=""1.0""?>\n<Clock xmlns:dt=""urn:schemas-microsoft-com:datatypes""><Description dt:dt=""string"">E-Prime Primary Realtime Clock</Description><StartTime><Timestamp dt:dt=""int"">0</Timestamp><DateUtc dt:dt=""string"">2021-11-11T00:16:53Z</DateUtc></StartTime><FrequencyChanges><FrequencyChange><Frequency dt:dt=""r8"">3020410</Frequency><Timestamp dt:dt=""r8"">3729533400740</Timestamp><Current dt:dt=""r8"">0</Current><DateUtc dt:dt=""string"">2021-11-11T00:16:53Z</DateUtc></FrequencyChange></FrequencyChanges></Clock>\n"	000_R01_VA_allProc-123-1	60.001	1.0.0.229	1	1502401781	Professional	2.0.10.356	2.0.10.356	11-10-2021	n/a	19:16:53	2.0.10.252	3	0	0	448107	15	448107	4000	-999999	611313	0	608137	0	Run4Proc	3	1	3	RunList	3	LowLargeED	8000	0	522106	0	522106	0	522106	0	C4LowLargeEDBlockProc	n/a	n/a	n/a	n/a	n/a	n/a	n/a	n/a	n/a	3.0	1.0	3.0	n/a	n/a	n/a	Run4BlockList	2	n/a	n/a	n/a	n/a	n/a	n/a	n/a	n/a	n/a	n/a	n/a	n/a	n/a	n/a	n/a	n/a	n/a	n/a	n/a	n/a	n/a	n/a	n/a	n/a	n/a	n/a	n/a	n/a	n/a	n/a	n/a	n/a	n/a	n/a	n/a	n/a	n/a	n/a	n/a	2.0	1.0	2.0	n/a	n/a	n/a	n/a	n/a	n/a	n/a	n/a	n/a	n/a	n/a	n/a	n/a	n/a	n/a	n/a	n/a	n/a	n/a	n/a	n/a	n/a	n/a	n/a	n/a	n/a	n/a	n/a	n/a	n/a	n/a	n/a	n/a	n/a	n/a	n/a	n/a	n/a	n/a	n/a	n/a	n/a	n/a	n/a	n/a	n/a	n/a	n/a	C4_02.jpg	500	0	509606	0	509606	0	TrialProc1	C4LowLargeEDBlockList	2500	0	507106	0	507106	0	507106	2500	d	497	507603	58.999
62	2.5	000_R01_VA_allProc	123	1	"<?xml version=""1.0""?>\n<Clock xmlns:dt=""urn:schemas-microsoft-com:datatypes""><Description dt:dt=""string"">E-Prime Primary Realtime Clock</Description><StartTime><Timestamp dt:dt=""int"">0</Timestamp><DateUtc dt:dt=""string"">2021-11-11T00:16:53Z</DateUtc></StartTime><FrequencyChanges><FrequencyChange><Frequency dt:dt=""r8"">3020410</Frequency><Timestamp dt:dt=""r8"">3729533400740</Timestamp><Current dt:dt=""r8"">0</Current><DateUtc dt:dt=""string"">2021-11-11T00:16:53Z</DateUtc></FrequencyChange></FrequencyChanges></Clock>\n"	000_R01_VA_allProc-123-1	60.001	1.0.0.229	1	1502401781	Professional	2.0.10.356	2.0.10.356	11-10-2021	n/a	19:16:53	2.0.10.252	3	0	0	448107	15	448107	4000	-999999	611313	0	608137	0	Run4Proc	3	1	3	RunList	3	LowLargeED	8000	0	522106	0	522106	0	522106	0	C4LowLargeEDBlockProc	n/a	n/a	n/a	n/a	n/a	n/a	n/a	n/a	n/a	3.0	1.0	3.0	n/a	n/a	n/a	Run4BlockList	3	n/a	n/a	n/a	n/a	n/a	n/a	n/a	n/a	n/a	n/a	n/a	n/a	n/a	n/a	n/a	n/a	n/a	n/a	n/a	n/a	n/a	n/a	n/a	n/a	n/a	n/a	n/a	n/a	n/a	n/a	n/a	n/a	n/a	n/a	n/a	n/a	n/a	n/a	n/a	3.0	1.0	3.0	n/a	n/a	n/a	n/a	n/a	n/a	n/a	n/a	n/a	n/a	n/a	n/a	n/a	n/a	n/a	n/a	n/a	n/a	n/a	n/a	n/a	n/a	n/a	n/a	n/a	n/a	n/a	n/a	n/a	n/a	n/a	n/a	n/a	n/a	n/a	n/a	n/a	n/a	n/a	n/a	n/a	n/a	n/a	n/a	n/a	n/a	n/a	n/a	C4_03.jpg	500	0	512606	0	512606	0	TrialProc1	C4LowLargeEDBlockList	2500	0	510106	0	510106	0	510106	2500	n/a	0	0	61.999
65	2.5	000_R01_VA_allProc	123	1	"<?xml version=""1.0""?>\n<Clock xmlns:dt=""urn:schemas-microsoft-com:datatypes""><Description dt:dt=""string"">E-Prime Primary Realtime Clock</Description><StartTime><Timestamp dt:dt=""int"">0</Timestamp><DateUtc dt:dt=""string"">2021-11-11T00:16:53Z</DateUtc></StartTime><FrequencyChanges><FrequencyChange><Frequency dt:dt=""r8"">3020410</Frequency><Timestamp dt:dt=""r8"">3729533400740</Timestamp><Current dt:dt=""r8"">0</Current><DateUtc dt:dt=""string"">2021-11-11T00:16:53Z</DateUtc></FrequencyChange></FrequencyChanges></Clock>\n"	000_R01_VA_allProc-123-1	60.001	1.0.0.229	1	1502401781	Professional	2.0.10.356	2.0.10.356	11-10-2021	n/a	19:16:53	2.0.10.252	3	0	0	448107	15	448107	4000	-999999	611313	0	608137	0	Run4Proc	3	1	3	RunList	3	LowLargeED	8000	0	522106	0	522106	0	522106	0	C4LowLargeEDBlockProc	n/a	n/a	n/a	n/a	n/a	n/a	n/a	n/a	n/a	3.0	1.0	3.0	n/a	n/a	n/a	Run4BlockList	4	n/a	n/a	n/a	n/a	n/a	n/a	n/a	n/a	n/a	n/a	n/a	n/a	n/a	n/a	n/a	n/a	n/a	n/a	n/a	n/a	n/a	n/a	n/a	n/a	n/a	n/a	n/a	n/a	n/a	n/a	n/a	n/a	n/a	n/a	n/a	n/a	n/a	n/a	n/a	4.0	1.0	4.0	n/a	n/a	n/a	n/a	n/a	n/a	n/a	n/a	n/a	n/a	n/a	n/a	n/a	n/a	n/a	n/a	n/a	n/a	n/a	n/a	n/a	n/a	n/a	n/a	n/a	n/a	n/a	n/a	n/a	n/a	n/a	n/a	n/a	n/a	n/a	n/a	n/a	n/a	n/a	n/a	n/a	n/a	n/a	n/a	n/a	n/a	n/a	n/a	C4_04.jpg	500	0	515606	0	515606	0	TrialProc1	C4LowLargeEDBlockList	2500	0	513106	0	513106	0	513106	2500	c	1769	514875	64.999
68	2.5	000_R01_VA_allProc	123	1	"<?xml version=""1.0""?>\n<Clock xmlns:dt=""urn:schemas-microsoft-com:datatypes""><Description dt:dt=""string"">E-Prime Primary Realtime Clock</Description><StartTime><Timestamp dt:dt=""int"">0</Timestamp><DateUtc dt:dt=""string"">2021-11-11T00:16:53Z</DateUtc></StartTime><FrequencyChanges><FrequencyChange><Frequency dt:dt=""r8"">3020410</Frequency><Timestamp dt:dt=""r8"">3729533400740</Timestamp><Current dt:dt=""r8"">0</Current><DateUtc dt:dt=""string"">2021-11-11T00:16:53Z</DateUtc></FrequencyChange></FrequencyChanges></Clock>\n"	000_R01_VA_allProc-123-1	60.001	1.0.0.229	1	1502401781	Professional	2.0.10.356	2.0.10.356	11-10-2021	n/a	19:16:53	2.0.10.252	3	0	0	448107	15	448107	4000	-999999	611313	0	608137	0	Run4Proc	3	1	3	RunList	3	LowLargeED	8000	0	522106	0	522106	0	522106	0	C4LowLargeEDBlockProc	n/a	n/a	n/a	n/a	n/a	n/a	n/a	n/a	n/a	3.0	1.0	3.0	n/a	n/a	n/a	Run4BlockList	5	n/a	n/a	n/a	n/a	n/a	n/a	n/a	n/a	n/a	n/a	n/a	n/a	n/a	n/a	n/a	n/a	n/a	n/a	n/a	n/a	n/a	n/a	n/a	n/a	n/a	n/a	n/a	n/a	n/a	n/a	n/a	n/a	n/a	n/a	n/a	n/a	n/a	n/a	n/a	5.0	1.0	5.0	n/a	n/a	n/a	n/a	n/a	n/a	n/a	n/a	n/a	n/a	n/a	n/a	n/a	n/a	n/a	n/a	n/a	n/a	n/a	n/a	n/a	n/a	n/a	n/a	n/a	n/a	n/a	n/a	n/a	n/a	n/a	n/a	n/a	n/a	n/a	n/a	n/a	n/a	n/a	n/a	n/a	n/a	n/a	n/a	n/a	n/a	n/a	n/a	C4_05.jpg	500	0	518606	0	518606	0	TrialProc1	C4LowLargeEDBlockList	2500	0	516106	0	516106	0	516106	2500	d	945	517051	67.999
71	2.5	000_R01_VA_allProc	123	1	"<?xml version=""1.0""?>\n<Clock xmlns:dt=""urn:schemas-microsoft-com:datatypes""><Description dt:dt=""string"">E-Prime Primary Realtime Clock</Description><StartTime><Timestamp dt:dt=""int"">0</Timestamp><DateUtc dt:dt=""string"">2021-11-11T00:16:53Z</DateUtc></StartTime><FrequencyChanges><FrequencyChange><Frequency dt:dt=""r8"">3020410</Frequency><Timestamp dt:dt=""r8"">3729533400740</Timestamp><Current dt:dt=""r8"">0</Current><DateUtc dt:dt=""string"">2021-11-11T00:16:53Z</DateUtc></FrequencyChange></FrequencyChanges></Clock>\n"	000_R01_VA_allProc-123-1	60.001	1.0.0.229	1	1502401781	Professional	2.0.10.356	2.0.10.356	11-10-2021	n/a	19:16:53	2.0.10.252	3	0	0	448107	15	448107	4000	-999999	611313	0	608137	0	Run4Proc	3	1	3	RunList	3	LowLargeED	8000	0	522106	0	522106	0	522106	0	C4LowLargeEDBlockProc	n/a	n/a	n/a	n/a	n/a	n/a	n/a	n/a	n/a	3.0	1.0	3.0	n/a	n/a	n/a	Run4BlockList	6	n/a	n/a	n/a	n/a	n/a	n/a	n/a	n/a	n/a	n/a	n/a	n/a	n/a	n/a	n/a	n/a	n/a	n/a	n/a	n/a	n/a	n/a	n/a	n/a	n/a	n/a	n/a	n/a	n/a	n/a	n/a	n/a	n/a	n/a	n/a	n/a	n/a	n/a	n/a	6.0	1.0	6.0	n/a	n/a	n/a	n/a	n/a	n/a	n/a	n/a	n/a	n/a	n/a	n/a	n/a	n/a	n/a	n/a	n/a	n/a	n/a	n/a	n/a	n/a	n/a	n/a	n/a	n/a	n/a	n/a	n/a	n/a	n/a	n/a	n/a	n/a	n/a	n/a	n/a	n/a	n/a	n/a	n/a	n/a	n/a	n/a	n/a	n/a	n/a	n/a	C4_06.jpg	500	0	521606	0	521606	0	TrialProc1	C4LowLargeEDBlockList	2500	0	519106	0	519106	0	519106	2500	c	1009	520115	70.999
82	2.5	000_R01_VA_allProc	123	1	"<?xml version=""1.0""?>\n<Clock xmlns:dt=""urn:schemas-microsoft-com:datatypes""><Description dt:dt=""string"">E-Prime Primary Realtime Clock</Description><StartTime><Timestamp dt:dt=""int"">0</Timestamp><DateUtc dt:dt=""string"">2021-11-11T00:16:53Z</DateUtc></StartTime><FrequencyChanges><FrequencyChange><Frequency dt:dt=""r8"">3020410</Frequency><Timestamp dt:dt=""r8"">3729533400740</Timestamp><Current dt:dt=""r8"">0</Current><DateUtc dt:dt=""string"">2021-11-11T00:16:53Z</DateUtc></FrequencyChange></FrequencyChanges></Clock>\n"	000_R01_VA_allProc-123-1	60.001	1.0.0.229	1	1502401781	Professional	2.0.10.356	2.0.10.356	11-10-2021	n/a	19:16:53	2.0.10.252	3	0	0	448107	15	448107	4000	-999999	611313	0	608137	0	Run4Proc	3	1	3	RunList	4	OfficeLarge	8000	1	548139	1	548139	0	548138	0	E4OfficeLargeBlockProc	n/a	n/a	n/a	n/a	n/a	n/a	n/a	n/a	n/a	4.0	1.0	4.0	n/a	n/a	n/a	Run4BlockList	1	n/a	n/a	n/a	n/a	n/a	n/a	n/a	n/a	n/a	n/a	n/a	n/a	n/a	n/a	n/a	n/a	n/a	n/a	n/a	n/a	n/a	n/a	n/a	n/a	n/a	n/a	n/a	n/a	n/a	n/a	n/a	n/a	n/a	n/a	n/a	n/a	n/a	n/a	n/a	n/a	n/a	n/a	n/a	n/a	n/a	n/a	n/a	n/a	n/a	n/a	n/a	n/a	n/a	n/a	n/a	n/a	n/a	n/a	n/a	n/a	n/a	n/a	n/a	n/a	n/a	n/a	n/a	n/a	n/a	1.0	1.0	1.0	n/a	n/a	n/a	n/a	n/a	n/a	n/a	n/a	n/a	n/a	n/a	n/a	n/a	n/a	n/a	n/a	n/a	n/a	E4_01.jpg	500	1	532606	-1	532605	0	TrialProc1	E4OfficeLargeBlockList	2500	0	530106	0	530106	0	530106	2499	c	1889	531995	81.999
85	2.5	000_R01_VA_allProc	123	1	"<?xml version=""1.0""?>\n<Clock xmlns:dt=""urn:schemas-microsoft-com:datatypes""><Description dt:dt=""string"">E-Prime Primary Realtime Clock</Description><StartTime><Timestamp dt:dt=""int"">0</Timestamp><DateUtc dt:dt=""string"">2021-11-11T00:16:53Z</DateUtc></StartTime><FrequencyChanges><FrequencyChange><Frequency dt:dt=""r8"">3020410</Frequency><Timestamp dt:dt=""r8"">3729533400740</Timestamp><Current dt:dt=""r8"">0</Current><DateUtc dt:dt=""string"">2021-11-11T00:16:53Z</DateUtc></FrequencyChange></FrequencyChanges></Clock>\n"	000_R01_VA_allProc-123-1	60.001	1.0.0.229	1	1502401781	Professional	2.0.10.356	2.0.10.356	11-10-2021	n/a	19:16:53	2.0.10.252	3	0	0	448107	15	448107	4000	-999999	611313	0	608137	0	Run4Proc	3	1	3	RunList	4	OfficeLarge	8000	1	548139	1	548139	0	548138	0	E4OfficeLargeBlockProc	n/a	n/a	n/a	n/a	n/a	n/a	n/a	n/a	n/a	4.0	1.0	4.0	n/a	n/a	n/a	Run4BlockList	2	n/a	n/a	n/a	n/a	n/a	n/a	n/a	n/a	n/a	n/a	n/a	n/a	n/a	n/a	n/a	n/a	n/a	n/a	n/a	n/a	n/a	n/a	n/a	n/a	n/a	n/a	n/a	n/a	n/a	n/a	n/a	n/a	n/a	n/a	n/a	n/a	n/a	n/a	n/a	n/a	n/a	n/a	n/a	n/a	n/a	n/a	n/a	n/a	n/a	n/a	n/a	n/a	n/a	n/a	n/a	n/a	n/a	n/a	n/a	n/a	n/a	n/a	n/a	n/a	n/a	n/a	n/a	n/a	n/a	2.0	1.0	2.0	n/a	n/a	n/a	n/a	n/a	n/a	n/a	n/a	n/a	n/a	n/a	n/a	n/a	n/a	n/a	n/a	n/a	n/a	E4_02.jpg	500	0	535639	34	535639	0	TrialProc1	E4OfficeLargeBlockList	2500	1	533106	1	533106	0	533105	2534	c	1722	534827	84.998
88	2.5	000_R01_VA_allProc	123	1	"<?xml version=""1.0""?>\n<Clock xmlns:dt=""urn:schemas-microsoft-com:datatypes""><Description dt:dt=""string"">E-Prime Primary Realtime Clock</Description><StartTime><Timestamp dt:dt=""int"">0</Timestamp><DateUtc dt:dt=""string"">2021-11-11T00:16:53Z</DateUtc></StartTime><FrequencyChanges><FrequencyChange><Frequency dt:dt=""r8"">3020410</Frequency><Timestamp dt:dt=""r8"">3729533400740</Timestamp><Current dt:dt=""r8"">0</Current><DateUtc dt:dt=""string"">2021-11-11T00:16:53Z</DateUtc></FrequencyChange></FrequencyChanges></Clock>\n"	000_R01_VA_allProc-123-1	60.001	1.0.0.229	1	1502401781	Professional	2.0.10.356	2.0.10.356	11-10-2021	n/a	19:16:53	2.0.10.252	3	0	0	448107	15	448107	4000	-999999	611313	0	608137	0	Run4Proc	3	1	3	RunList	4	OfficeLarge	8000	1	548139	1	548139	0	548138	0	E4OfficeLargeBlockProc	n/a	n/a	n/a	n/a	n/a	n/a	n/a	n/a	n/a	4.0	1.0	4.0	n/a	n/a	n/a	Run4BlockList	3	n/a	n/a	n/a	n/a	n/a	n/a	n/a	n/a	n/a	n/a	n/a	n/a	n/a	n/a	n/a	n/a	n/a	n/a	n/a	n/a	n/a	n/a	n/a	n/a	n/a	n/a	n/a	n/a	n/a	n/a	n/a	n/a	n/a	n/a	n/a	n/a	n/a	n/a	n/a	n/a	n/a	n/a	n/a	n/a	n/a	n/a	n/a	n/a	n/a	n/a	n/a	n/a	n/a	n/a	n/a	n/a	n/a	n/a	n/a	n/a	n/a	n/a	n/a	n/a	n/a	n/a	n/a	n/a	n/a	3.0	1.0	3.0	n/a	n/a	n/a	n/a	n/a	n/a	n/a	n/a	n/a	n/a	n/a	n/a	n/a	n/a	n/a	n/a	n/a	n/a	E4_03.jpg	500	0	538639	0	538639	0	TrialProc1	E4OfficeLargeBlockList	2500	0	536139	0	536139	0	536139	2500	n/a	0	0	88.032
91	2.5	000_R01_VA_allProc	123	1	"<?xml version=""1.0""?>\n<Clock xmlns:dt=""urn:schemas-microsoft-com:datatypes""><Description dt:dt=""string"">E-Prime Primary Realtime Clock</Description><StartTime><Timestamp dt:dt=""int"">0</Timestamp><DateUtc dt:dt=""string"">2021-11-11T00:16:53Z</DateUtc></StartTime><FrequencyChanges><FrequencyChange><Frequency dt:dt=""r8"">3020410</Frequency><Timestamp dt:dt=""r8"">3729533400740</Timestamp><Current dt:dt=""r8"">0</Current><DateUtc dt:dt=""string"">2021-11-11T00:16:53Z</DateUtc></FrequencyChange></FrequencyChanges></Clock>\n"	000_R01_VA_allProc-123-1	60.001	1.0.0.229	1	1502401781	Professional	2.0.10.356	2.0.10.356	11-10-2021	n/a	19:16:53	2.0.10.252	3	0	0	448107	15	448107	4000	-999999	611313	0	608137	0	Run4Proc	3	1	3	RunList	4	OfficeLarge	8000	1	548139	1	548139	0	548138	0	E4OfficeLargeBlockProc	n/a	n/a	n/a	n/a	n/a	n/a	n/a	n/a	n/a	4.0	1.0	4.0	n/a	n/a	n/a	Run4BlockList	4	n/a	n/a	n/a	n/a	n/a	n/a	n/a	n/a	n/a	n/a	n/a	n/a	n/a	n/a	n/a	n/a	n/a	n/a	n/a	n/a	n/a	n/a	n/a	n/a	n/a	n/a	n/a	n/a	n/a	n/a	n/a	n/a	n/a	n/a	n/a	n/a	n/a	n/a	n/a	n/a	n/a	n/a	n/a	n/a	n/a	n/a	n/a	n/a	n/a	n/a	n/a	n/a	n/a	n/a	n/a	n/a	n/a	n/a	n/a	n/a	n/a	n/a	n/a	n/a	n/a	n/a	n/a	n/a	n/a	4.0	1.0	4.0	n/a	n/a	n/a	n/a	n/a	n/a	n/a	n/a	n/a	n/a	n/a	n/a	n/a	n/a	n/a	n/a	n/a	n/a	E4_04.jpg	500	0	541639	0	541639	0	TrialProc1	E4OfficeLargeBlockList	2500	0	539139	0	539139	0	539139	2500	c	1016	540155	91.032
94	2.5	000_R01_VA_allProc	123	1	"<?xml version=""1.0""?>\n<Clock xmlns:dt=""urn:schemas-microsoft-com:datatypes""><Description dt:dt=""string"">E-Prime Primary Realtime Clock</Description><StartTime><Timestamp dt:dt=""int"">0</Timestamp><DateUtc dt:dt=""string"">2021-11-11T00:16:53Z</DateUtc></StartTime><FrequencyChanges><FrequencyChange><Frequency dt:dt=""r8"">3020410</Frequency><Timestamp dt:dt=""r8"">3729533400740</Timestamp><Current dt:dt=""r8"">0</Current><DateUtc dt:dt=""string"">2021-11-11T00:16:53Z</DateUtc></FrequencyChange></FrequencyChanges></Clock>\n"	000_R01_VA_allProc-123-1	60.001	1.0.0.229	1	1502401781	Professional	2.0.10.356	2.0.10.356	11-10-2021	n/a	19:16:53	2.0.10.252	3	0	0	448107	15	448107	4000	-999999	611313	0	608137	0	Run4Proc	3	1	3	RunList	4	OfficeLarge	8000	1	548139	1	548139	0	548138	0	E4OfficeLargeBlockProc	n/a	n/a	n/a	n/a	n/a	n/a	n/a	n/a	n/a	4.0	1.0	4.0	n/a	n/a	n/a	Run4BlockList	5	n/a	n/a	n/a	n/a	n/a	n/a	n/a	n/a	n/a	n/a	n/a	n/a	n/a	n/a	n/a	n/a	n/a	n/a	n/a	n/a	n/a	n/a	n/a	n/a	n/a	n/a	n/a	n/a	n/a	n/a	n/a	n/a	n/a	n/a	n/a	n/a	n/a	n/a	n/a	n/a	n/a	n/a	n/a	n/a	n/a	n/a	n/a	n/a	n/a	n/a	n/a	n/a	n/a	n/a	n/a	n/a	n/a	n/a	n/a	n/a	n/a	n/a	n/a	n/a	n/a	n/a	n/a	n/a	n/a	5.0	1.0	5.0	n/a	n/a	n/a	n/a	n/a	n/a	n/a	n/a	n/a	n/a	n/a	n/a	n/a	n/a	n/a	n/a	n/a	n/a	E4_05.jpg	500	0	544639	0	544639	0	TrialProc1	E4OfficeLargeBlockList	2500	0	542139	0	542139	0	542139	2500	c	1432	543571	94.032
97	2.5	000_R01_VA_allProc	123	1	"<?xml version=""1.0""?>\n<Clock xmlns:dt=""urn:schemas-microsoft-com:datatypes""><Description dt:dt=""string"">E-Prime Primary Realtime Clock</Description><StartTime><Timestamp dt:dt=""int"">0</Timestamp><DateUtc dt:dt=""string"">2021-11-11T00:16:53Z</DateUtc></StartTime><FrequencyChanges><FrequencyChange><Frequency dt:dt=""r8"">3020410</Frequency><Timestamp dt:dt=""r8"">3729533400740</Timestamp><Current dt:dt=""r8"">0</Current><DateUtc dt:dt=""string"">2021-11-11T00:16:53Z</DateUtc></FrequencyChange></FrequencyChanges></Clock>\n"	000_R01_VA_allProc-123-1	60.001	1.0.0.229	1	1502401781	Professional	2.0.10.356	2.0.10.356	11-10-2021	n/a	19:16:53	2.0.10.252	3	0	0	448107	15	448107	4000	-999999	611313	0	608137	0	Run4Proc	3	1	3	RunList	4	OfficeLarge	8000	1	548139	1	548139	0	548138	0	E4OfficeLargeBlockProc	n/a	n/a	n/a	n/a	n/a	n/a	n/a	n/a	n/a	4.0	1.0	4.0	n/a	n/a	n/a	Run4BlockList	6	n/a	n/a	n/a	n/a	n/a	n/a	n/a	n/a	n/a	n/a	n/a	n/a	n/a	n/a	n/a	n/a	n/a	n/a	n/a	n/a	n/a	n/a	n/a	n/a	n/a	n/a	n/a	n/a	n/a	n/a	n/a	n/a	n/a	n/a	n/a	n/a	n/a	n/a	n/a	n/a	n/a	n/a	n/a	n/a	n/a	n/a	n/a	n/a	n/a	n/a	n/a	n/a	n/a	n/a	n/a	n/a	n/a	n/a	n/a	n/a	n/a	n/a	n/a	n/a	n/a	n/a	n/a	n/a	n/a	6.0	1.0	6.0	n/a	n/a	n/a	n/a	n/a	n/a	n/a	n/a	n/a	n/a	n/a	n/a	n/a	n/a	n/a	n/a	n/a	n/a	E4_06.jpg	500	1	547639	-1	547638	0	TrialProc1	E4OfficeLargeBlockList	2500	0	545139	0	545139	0	545139	2499	c	1248	546387	97.032
108	2.5	000_R01_VA_allProc	123	1	"<?xml version=""1.0""?>\n<Clock xmlns:dt=""urn:schemas-microsoft-com:datatypes""><Description dt:dt=""string"">E-Prime Primary Realtime Clock</Description><StartTime><Timestamp dt:dt=""int"">0</Timestamp><DateUtc dt:dt=""string"">2021-11-11T00:16:53Z</DateUtc></StartTime><FrequencyChanges><FrequencyChange><Frequency dt:dt=""r8"">3020410</Frequency><Timestamp dt:dt=""r8"">3729533400740</Timestamp><Current dt:dt=""r8"">0</Current><DateUtc dt:dt=""string"">2021-11-11T00:16:53Z</DateUtc></FrequencyChange></FrequencyChanges></Clock>\n"	000_R01_VA_allProc-123-1	60.001	1.0.0.229	1	1502401781	Professional	2.0.10.356	2.0.10.356	11-10-2021	n/a	19:16:53	2.0.10.252	3	0	0	448107	15	448107	4000	-999999	611313	0	608137	0	Run4Proc	3	1	3	RunList	5	LowSmallED	8000	0	574138	0	574138	0	574138	0	D4LowSmallEDBlockProc	n/a	n/a	n/a	n/a	n/a	n/a	n/a	n/a	n/a	5.0	1.0	5.0	n/a	n/a	n/a	Run4BlockList	1	n/a	n/a	n/a	n/a	n/a	n/a	n/a	n/a	n/a	n/a	n/a	n/a	n/a	n/a	n/a	n/a	n/a	n/a	n/a	n/a	n/a	n/a	n/a	n/a	n/a	n/a	n/a	n/a	n/a	n/a	n/a	n/a	n/a	n/a	n/a	n/a	n/a	n/a	n/a	n/a	n/a	n/a	n/a	n/a	n/a	n/a	n/a	n/a	n/a	n/a	n/a	n/a	n/a	n/a	1.0	1.0	1.0	n/a	n/a	n/a	n/a	n/a	n/a	n/a	n/a	n/a	n/a	n/a	n/a	n/a	n/a	n/a	n/a	n/a	n/a	n/a	n/a	n/a	n/a	n/a	n/a	n/a	n/a	n/a	n/a	n/a	n/a	n/a	n/a	n/a	D4_01.jpg	500	0	558638	0	558638	0	TrialProc1	D4LowSmallEDBlockList	2500	0	556138	0	556138	0	556138	2500	c	2016	558154	108.031
111	2.5	000_R01_VA_allProc	123	1	"<?xml version=""1.0""?>\n<Clock xmlns:dt=""urn:schemas-microsoft-com:datatypes""><Description dt:dt=""string"">E-Prime Primary Realtime Clock</Description><StartTime><Timestamp dt:dt=""int"">0</Timestamp><DateUtc dt:dt=""string"">2021-11-11T00:16:53Z</DateUtc></StartTime><FrequencyChanges><FrequencyChange><Frequency dt:dt=""r8"">3020410</Frequency><Timestamp dt:dt=""r8"">3729533400740</Timestamp><Current dt:dt=""r8"">0</Current><DateUtc dt:dt=""string"">2021-11-11T00:16:53Z</DateUtc></FrequencyChange></FrequencyChanges></Clock>\n"	000_R01_VA_allProc-123-1	60.001	1.0.0.229	1	1502401781	Professional	2.0.10.356	2.0.10.356	11-10-2021	n/a	19:16:53	2.0.10.252	3	0	0	448107	15	448107	4000	-999999	611313	0	608137	0	Run4Proc	3	1	3	RunList	5	LowSmallED	8000	0	574138	0	574138	0	574138	0	D4LowSmallEDBlockProc	n/a	n/a	n/a	n/a	n/a	n/a	n/a	n/a	n/a	5.0	1.0	5.0	n/a	n/a	n/a	Run4BlockList	2	n/a	n/a	n/a	n/a	n/a	n/a	n/a	n/a	n/a	n/a	n/a	n/a	n/a	n/a	n/a	n/a	n/a	n/a	n/a	n/a	n/a	n/a	n/a	n/a	n/a	n/a	n/a	n/a	n/a	n/a	n/a	n/a	n/a	n/a	n/a	n/a	n/a	n/a	n/a	n/a	n/a	n/a	n/a	n/a	n/a	n/a	n/a	n/a	n/a	n/a	n/a	n/a	n/a	n/a	2.0	1.0	2.0	n/a	n/a	n/a	n/a	n/a	n/a	n/a	n/a	n/a	n/a	n/a	n/a	n/a	n/a	n/a	n/a	n/a	n/a	n/a	n/a	n/a	n/a	n/a	n/a	n/a	n/a	n/a	n/a	n/a	n/a	n/a	n/a	n/a	D4_02.jpg	500	0	561638	0	561638	0	TrialProc1	D4LowSmallEDBlockList	2500	0	559138	0	559138	0	559138	2500	c	1816	560954	111.031
114	2.5	000_R01_VA_allProc	123	1	"<?xml version=""1.0""?>\n<Clock xmlns:dt=""urn:schemas-microsoft-com:datatypes""><Description dt:dt=""string"">E-Prime Primary Realtime Clock</Description><StartTime><Timestamp dt:dt=""int"">0</Timestamp><DateUtc dt:dt=""string"">2021-11-11T00:16:53Z</DateUtc></StartTime><FrequencyChanges><FrequencyChange><Frequency dt:dt=""r8"">3020410</Frequency><Timestamp dt:dt=""r8"">3729533400740</Timestamp><Current dt:dt=""r8"">0</Current><DateUtc dt:dt=""string"">2021-11-11T00:16:53Z</DateUtc></FrequencyChange></FrequencyChanges></Clock>\n"	000_R01_VA_allProc-123-1	60.001	1.0.0.229	1	1502401781	Professional	2.0.10.356	2.0.10.356	11-10-2021	n/a	19:16:53	2.0.10.252	3	0	0	448107	15	448107	4000	-999999	611313	0	608137	0	Run4Proc	3	1	3	RunList	5	LowSmallED	8000	0	574138	0	574138	0	574138	0	D4LowSmallEDBlockProc	n/a	n/a	n/a	n/a	n/a	n/a	n/a	n/a	n/a	5.0	1.0	5.0	n/a	n/a	n/a	Run4BlockList	3	n/a	n/a	n/a	n/a	n/a	n/a	n/a	n/a	n/a	n/a	n/a	n/a	n/a	n/a	n/a	n/a	n/a	n/a	n/a	n/a	n/a	n/a	n/a	n/a	n/a	n/a	n/a	n/a	n/a	n/a	n/a	n/a	n/a	n/a	n/a	n/a	n/a	n/a	n/a	n/a	n/a	n/a	n/a	n/a	n/a	n/a	n/a	n/a	n/a	n/a	n/a	n/a	n/a	n/a	3.0	1.0	3.0	n/a	n/a	n/a	n/a	n/a	n/a	n/a	n/a	n/a	n/a	n/a	n/a	n/a	n/a	n/a	n/a	n/a	n/a	n/a	n/a	n/a	n/a	n/a	n/a	n/a	n/a	n/a	n/a	n/a	n/a	n/a	n/a	n/a	D4_03.jpg	500	0	564638	0	564638	0	TrialProc1	D4LowSmallEDBlockList	2500	0	562138	0	562138	0	562138	2500	c	1256	563394	114.031
117	2.5	000_R01_VA_allProc	123	1	"<?xml version=""1.0""?>\n<Clock xmlns:dt=""urn:schemas-microsoft-com:datatypes""><Description dt:dt=""string"">E-Prime Primary Realtime Clock</Description><StartTime><Timestamp dt:dt=""int"">0</Timestamp><DateUtc dt:dt=""string"">2021-11-11T00:16:53Z</DateUtc></StartTime><FrequencyChanges><FrequencyChange><Frequency dt:dt=""r8"">3020410</Frequency><Timestamp dt:dt=""r8"">3729533400740</Timestamp><Current dt:dt=""r8"">0</Current><DateUtc dt:dt=""string"">2021-11-11T00:16:53Z</DateUtc></FrequencyChange></FrequencyChanges></Clock>\n"	000_R01_VA_allProc-123-1	60.001	1.0.0.229	1	1502401781	Professional	2.0.10.356	2.0.10.356	11-10-2021	n/a	19:16:53	2.0.10.252	3	0	0	448107	15	448107	4000	-999999	611313	0	608137	0	Run4Proc	3	1	3	RunList	5	LowSmallED	8000	0	574138	0	574138	0	574138	0	D4LowSmallEDBlockProc	n/a	n/a	n/a	n/a	n/a	n/a	n/a	n/a	n/a	5.0	1.0	5.0	n/a	n/a	n/a	Run4BlockList	4	n/a	n/a	n/a	n/a	n/a	n/a	n/a	n/a	n/a	n/a	n/a	n/a	n/a	n/a	n/a	n/a	n/a	n/a	n/a	n/a	n/a	n/a	n/a	n/a	n/a	n/a	n/a	n/a	n/a	n/a	n/a	n/a	n/a	n/a	n/a	n/a	n/a	n/a	n/a	n/a	n/a	n/a	n/a	n/a	n/a	n/a	n/a	n/a	n/a	n/a	n/a	n/a	n/a	n/a	4.0	1.0	4.0	n/a	n/a	n/a	n/a	n/a	n/a	n/a	n/a	n/a	n/a	n/a	n/a	n/a	n/a	n/a	n/a	n/a	n/a	n/a	n/a	n/a	n/a	n/a	n/a	n/a	n/a	n/a	n/a	n/a	n/a	n/a	n/a	n/a	D4_04.jpg	500	0	567638	0	567638	0	TrialProc1	D4LowSmallEDBlockList	2500	0	565138	0	565138	0	565138	2500	d	904	566042	117.031
120	2.5	000_R01_VA_allProc	123	1	"<?xml version=""1.0""?>\n<Clock xmlns:dt=""urn:schemas-microsoft-com:datatypes""><Description dt:dt=""string"">E-Prime Primary Realtime Clock</Description><StartTime><Timestamp dt:dt=""int"">0</Timestamp><DateUtc dt:dt=""string"">2021-11-11T00:16:53Z</DateUtc></StartTime><FrequencyChanges><FrequencyChange><Frequency dt:dt=""r8"">3020410</Frequency><Timestamp dt:dt=""r8"">3729533400740</Timestamp><Current dt:dt=""r8"">0</Current><DateUtc dt:dt=""string"">2021-11-11T00:16:53Z</DateUtc></FrequencyChange></FrequencyChanges></Clock>\n"	000_R01_VA_allProc-123-1	60.001	1.0.0.229	1	1502401781	Professional	2.0.10.356	2.0.10.356	11-10-2021	n/a	19:16:53	2.0.10.252	3	0	0	448107	15	448107	4000	-999999	611313	0	608137	0	Run4Proc	3	1	3	RunList	5	LowSmallED	8000	0	574138	0	574138	0	574138	0	D4LowSmallEDBlockProc	n/a	n/a	n/a	n/a	n/a	n/a	n/a	n/a	n/a	5.0	1.0	5.0	n/a	n/a	n/a	Run4BlockList	5	n/a	n/a	n/a	n/a	n/a	n/a	n/a	n/a	n/a	n/a	n/a	n/a	n/a	n/a	n/a	n/a	n/a	n/a	n/a	n/a	n/a	n/a	n/a	n/a	n/a	n/a	n/a	n/a	n/a	n/a	n/a	n/a	n/a	n/a	n/a	n/a	n/a	n/a	n/a	n/a	n/a	n/a	n/a	n/a	n/a	n/a	n/a	n/a	n/a	n/a	n/a	n/a	n/a	n/a	5.0	1.0	5.0	n/a	n/a	n/a	n/a	n/a	n/a	n/a	n/a	n/a	n/a	n/a	n/a	n/a	n/a	n/a	n/a	n/a	n/a	n/a	n/a	n/a	n/a	n/a	n/a	n/a	n/a	n/a	n/a	n/a	n/a	n/a	n/a	n/a	D4_05.jpg	500	0	570638	0	570638	0	TrialProc1	D4LowSmallEDBlockList	2500	0	568138	0	568138	0	568138	2500	c	1320	569458	120.031
123	2.5	000_R01_VA_allProc	123	1	"<?xml version=""1.0""?>\n<Clock xmlns:dt=""urn:schemas-microsoft-com:datatypes""><Description dt:dt=""string"">E-Prime Primary Realtime Clock</Description><StartTime><Timestamp dt:dt=""int"">0</Timestamp><DateUtc dt:dt=""string"">2021-11-11T00:16:53Z</DateUtc></StartTime><FrequencyChanges><FrequencyChange><Frequency dt:dt=""r8"">3020410</Frequency><Timestamp dt:dt=""r8"">3729533400740</Timestamp><Current dt:dt=""r8"">0</Current><DateUtc dt:dt=""string"">2021-11-11T00:16:53Z</DateUtc></FrequencyChange></FrequencyChanges></Clock>\n"	000_R01_VA_allProc-123-1	60.001	1.0.0.229	1	1502401781	Professional	2.0.10.356	2.0.10.356	11-10-2021	n/a	19:16:53	2.0.10.252	3	0	0	448107	15	448107	4000	-999999	611313	0	608137	0	Run4Proc	3	1	3	RunList	5	LowSmallED	8000	0	574138	0	574138	0	574138	0	D4LowSmallEDBlockProc	n/a	n/a	n/a	n/a	n/a	n/a	n/a	n/a	n/a	5.0	1.0	5.0	n/a	n/a	n/a	Run4BlockList	6	n/a	n/a	n/a	n/a	n/a	n/a	n/a	n/a	n/a	n/a	n/a	n/a	n/a	n/a	n/a	n/a	n/a	n/a	n/a	n/a	n/a	n/a	n/a	n/a	n/a	n/a	n/a	n/a	n/a	n/a	n/a	n/a	n/a	n/a	n/a	n/a	n/a	n/a	n/a	n/a	n/a	n/a	n/a	n/a	n/a	n/a	n/a	n/a	n/a	n/a	n/a	n/a	n/a	n/a	6.0	1.0	6.0	n/a	n/a	n/a	n/a	n/a	n/a	n/a	n/a	n/a	n/a	n/a	n/a	n/a	n/a	n/a	n/a	n/a	n/a	n/a	n/a	n/a	n/a	n/a	n/a	n/a	n/a	n/a	n/a	n/a	n/a	n/a	n/a	n/a	D4_06.jpg	500	0	573638	0	573638	0	TrialProc1	D4LowSmallEDBlockList	2500	0	571138	0	571138	0	571138	2500	d	2120	573258	123.031
134	2.5	000_R01_VA_allProc	123	1	"<?xml version=""1.0""?>\n<Clock xmlns:dt=""urn:schemas-microsoft-com:datatypes""><Description dt:dt=""string"">E-Prime Primary Realtime Clock</Description><StartTime><Timestamp dt:dt=""int"">0</Timestamp><DateUtc dt:dt=""string"">2021-11-11T00:16:53Z</DateUtc></StartTime><FrequencyChanges><FrequencyChange><Frequency dt:dt=""r8"">3020410</Frequency><Timestamp dt:dt=""r8"">3729533400740</Timestamp><Current dt:dt=""r8"">0</Current><DateUtc dt:dt=""string"">2021-11-11T00:16:53Z</DateUtc></FrequencyChange></FrequencyChanges></Clock>\n"	000_R01_VA_allProc-123-1	60.001	1.0.0.229	1	1502401781	Professional	2.0.10.356	2.0.10.356	11-10-2021	n/a	19:16:53	2.0.10.252	3	0	0	448107	15	448107	4000	-999999	611313	0	608137	0	Run4Proc	3	1	3	RunList	6	HighLargeED	8000	0	600137	0	600137	0	600137	0	A4HighLargeEDBlockProc	n/a	n/a	n/a	n/a	n/a	n/a	n/a	n/a	n/a	6.0	1.0	6.0	n/a	n/a	n/a	Run4BlockList	1	n/a	n/a	n/a	n/a	n/a	n/a	n/a	n/a	n/a	1.0	1.0	1.0	n/a	n/a	n/a	n/a	n/a	n/a	n/a	n/a	n/a	n/a	n/a	n/a	n/a	n/a	n/a	n/a	n/a	n/a	n/a	n/a	n/a	n/a	n/a	n/a	n/a	n/a	n/a	n/a	n/a	n/a	n/a	n/a	n/a	n/a	n/a	n/a	n/a	n/a	n/a	n/a	n/a	n/a	n/a	n/a	n/a	n/a	n/a	n/a	n/a	n/a	n/a	n/a	n/a	n/a	n/a	n/a	n/a	n/a	n/a	n/a	n/a	n/a	n/a	n/a	n/a	n/a	n/a	n/a	n/a	n/a	n/a	n/a	n/a	n/a	n/a	n/a	n/a	n/a	A4_01.jpg	500	0	584638	0	584638	0	TrialProc1	A4HighLargeEDBlockList	2500	0	582138	0	582138	0	582138	2500	d	1152	583290	134.031
137	2.5	000_R01_VA_allProc	123	1	"<?xml version=""1.0""?>\n<Clock xmlns:dt=""urn:schemas-microsoft-com:datatypes""><Description dt:dt=""string"">E-Prime Primary Realtime Clock</Description><StartTime><Timestamp dt:dt=""int"">0</Timestamp><DateUtc dt:dt=""string"">2021-11-11T00:16:53Z</DateUtc></StartTime><FrequencyChanges><FrequencyChange><Frequency dt:dt=""r8"">3020410</Frequency><Timestamp dt:dt=""r8"">3729533400740</Timestamp><Current dt:dt=""r8"">0</Current><DateUtc dt:dt=""string"">2021-11-11T00:16:53Z</DateUtc></FrequencyChange></FrequencyChanges></Clock>\n"	000_R01_VA_allProc-123-1	60.001	1.0.0.229	1	1502401781	Professional	2.0.10.356	2.0.10.356	11-10-2021	n/a	19:16:53	2.0.10.252	3	0	0	448107	15	448107	4000	-999999	611313	0	608137	0	Run4Proc	3	1	3	RunList	6	HighLargeED	8000	0	600137	0	600137	0	600137	0	A4HighLargeEDBlockProc	n/a	n/a	n/a	n/a	n/a	n/a	n/a	n/a	n/a	6.0	1.0	6.0	n/a	n/a	n/a	Run4BlockList	2	n/a	n/a	n/a	n/a	n/a	n/a	n/a	n/a	n/a	2.0	1.0	2.0	n/a	n/a	n/a	n/a	n/a	n/a	n/a	n/a	n/a	n/a	n/a	n/a	n/a	n/a	n/a	n/a	n/a	n/a	n/a	n/a	n/a	n/a	n/a	n/a	n/a	n/a	n/a	n/a	n/a	n/a	n/a	n/a	n/a	n/a	n/a	n/a	n/a	n/a	n/a	n/a	n/a	n/a	n/a	n/a	n/a	n/a	n/a	n/a	n/a	n/a	n/a	n/a	n/a	n/a	n/a	n/a	n/a	n/a	n/a	n/a	n/a	n/a	n/a	n/a	n/a	n/a	n/a	n/a	n/a	n/a	n/a	n/a	n/a	n/a	n/a	n/a	n/a	n/a	A4_02.jpg	500	0	587638	0	587638	0	TrialProc1	A4HighLargeEDBlockList	2500	0	585138	0	585138	0	585138	2500	d	808	585946	137.031
140	2.5	000_R01_VA_allProc	123	1	"<?xml version=""1.0""?>\n<Clock xmlns:dt=""urn:schemas-microsoft-com:datatypes""><Description dt:dt=""string"">E-Prime Primary Realtime Clock</Description><StartTime><Timestamp dt:dt=""int"">0</Timestamp><DateUtc dt:dt=""string"">2021-11-11T00:16:53Z</DateUtc></StartTime><FrequencyChanges><FrequencyChange><Frequency dt:dt=""r8"">3020410</Frequency><Timestamp dt:dt=""r8"">3729533400740</Timestamp><Current dt:dt=""r8"">0</Current><DateUtc dt:dt=""string"">2021-11-11T00:16:53Z</DateUtc></FrequencyChange></FrequencyChanges></Clock>\n"	000_R01_VA_allProc-123-1	60.001	1.0.0.229	1	1502401781	Professional	2.0.10.356	2.0.10.356	11-10-2021	n/a	19:16:53	2.0.10.252	3	0	0	448107	15	448107	4000	-999999	611313	0	608137	0	Run4Proc	3	1	3	RunList	6	HighLargeED	8000	0	600137	0	600137	0	600137	0	A4HighLargeEDBlockProc	n/a	n/a	n/a	n/a	n/a	n/a	n/a	n/a	n/a	6.0	1.0	6.0	n/a	n/a	n/a	Run4BlockList	3	n/a	n/a	n/a	n/a	n/a	n/a	n/a	n/a	n/a	3.0	1.0	3.0	n/a	n/a	n/a	n/a	n/a	n/a	n/a	n/a	n/a	n/a	n/a	n/a	n/a	n/a	n/a	n/a	n/a	n/a	n/a	n/a	n/a	n/a	n/a	n/a	n/a	n/a	n/a	n/a	n/a	n/a	n/a	n/a	n/a	n/a	n/a	n/a	n/a	n/a	n/a	n/a	n/a	n/a	n/a	n/a	n/a	n/a	n/a	n/a	n/a	n/a	n/a	n/a	n/a	n/a	n/a	n/a	n/a	n/a	n/a	n/a	n/a	n/a	n/a	n/a	n/a	n/a	n/a	n/a	n/a	n/a	n/a	n/a	n/a	n/a	n/a	n/a	n/a	n/a	A4_03.jpg	500	0	590638	0	590638	0	TrialProc1	A4HighLargeEDBlockList	2500	0	588138	0	588138	0	588138	2500	d	752	588890	140.031
143	2.5	000_R01_VA_allProc	123	1	"<?xml version=""1.0""?>\n<Clock xmlns:dt=""urn:schemas-microsoft-com:datatypes""><Description dt:dt=""string"">E-Prime Primary Realtime Clock</Description><StartTime><Timestamp dt:dt=""int"">0</Timestamp><DateUtc dt:dt=""string"">2021-11-11T00:16:53Z</DateUtc></StartTime><FrequencyChanges><FrequencyChange><Frequency dt:dt=""r8"">3020410</Frequency><Timestamp dt:dt=""r8"">3729533400740</Timestamp><Current dt:dt=""r8"">0</Current><DateUtc dt:dt=""string"">2021-11-11T00:16:53Z</DateUtc></FrequencyChange></FrequencyChanges></Clock>\n"	000_R01_VA_allProc-123-1	60.001	1.0.0.229	1	1502401781	Professional	2.0.10.356	2.0.10.356	11-10-2021	n/a	19:16:53	2.0.10.252	3	0	0	448107	15	448107	4000	-999999	611313	0	608137	0	Run4Proc	3	1	3	RunList	6	HighLargeED	8000	0	600137	0	600137	0	600137	0	A4HighLargeEDBlockProc	n/a	n/a	n/a	n/a	n/a	n/a	n/a	n/a	n/a	6.0	1.0	6.0	n/a	n/a	n/a	Run4BlockList	4	n/a	n/a	n/a	n/a	n/a	n/a	n/a	n/a	n/a	4.0	1.0	4.0	n/a	n/a	n/a	n/a	n/a	n/a	n/a	n/a	n/a	n/a	n/a	n/a	n/a	n/a	n/a	n/a	n/a	n/a	n/a	n/a	n/a	n/a	n/a	n/a	n/a	n/a	n/a	n/a	n/a	n/a	n/a	n/a	n/a	n/a	n/a	n/a	n/a	n/a	n/a	n/a	n/a	n/a	n/a	n/a	n/a	n/a	n/a	n/a	n/a	n/a	n/a	n/a	n/a	n/a	n/a	n/a	n/a	n/a	n/a	n/a	n/a	n/a	n/a	n/a	n/a	n/a	n/a	n/a	n/a	n/a	n/a	n/a	n/a	n/a	n/a	n/a	n/a	n/a	A4_04.jpg	500	1	593638	-1	593637	0	TrialProc1	A4HighLargeEDBlockList	2500	0	591138	0	591138	0	591138	2499	d	1160	592298	143.031
146	2.5	000_R01_VA_allProc	123	1	"<?xml version=""1.0""?>\n<Clock xmlns:dt=""urn:schemas-microsoft-com:datatypes""><Description dt:dt=""string"">E-Prime Primary Realtime Clock</Description><StartTime><Timestamp dt:dt=""int"">0</Timestamp><DateUtc dt:dt=""string"">2021-11-11T00:16:53Z</DateUtc></StartTime><FrequencyChanges><FrequencyChange><Frequency dt:dt=""r8"">3020410</Frequency><Timestamp dt:dt=""r8"">3729533400740</Timestamp><Current dt:dt=""r8"">0</Current><DateUtc dt:dt=""string"">2021-11-11T00:16:53Z</DateUtc></FrequencyChange></FrequencyChanges></Clock>\n"	000_R01_VA_allProc-123-1	60.001	1.0.0.229	1	1502401781	Professional	2.0.10.356	2.0.10.356	11-10-2021	n/a	19:16:53	2.0.10.252	3	0	0	448107	15	448107	4000	-999999	611313	0	608137	0	Run4Proc	3	1	3	RunList	6	HighLargeED	8000	0	600137	0	600137	0	600137	0	A4HighLargeEDBlockProc	n/a	n/a	n/a	n/a	n/a	n/a	n/a	n/a	n/a	6.0	1.0	6.0	n/a	n/a	n/a	Run4BlockList	5	n/a	n/a	n/a	n/a	n/a	n/a	n/a	n/a	n/a	5.0	1.0	5.0	n/a	n/a	n/a	n/a	n/a	n/a	n/a	n/a	n/a	n/a	n/a	n/a	n/a	n/a	n/a	n/a	n/a	n/a	n/a	n/a	n/a	n/a	n/a	n/a	n/a	n/a	n/a	n/a	n/a	n/a	n/a	n/a	n/a	n/a	n/a	n/a	n/a	n/a	n/a	n/a	n/a	n/a	n/a	n/a	n/a	n/a	n/a	n/a	n/a	n/a	n/a	n/a	n/a	n/a	n/a	n/a	n/a	n/a	n/a	n/a	n/a	n/a	n/a	n/a	n/a	n/a	n/a	n/a	n/a	n/a	n/a	n/a	n/a	n/a	n/a	n/a	n/a	n/a	A4_05.jpg	500	0	596637	0	596637	0	TrialProc1	A4HighLargeEDBlockList	2500	1	594138	1	594138	0	594137	2500	d	697	594834	146.03
149	2.5	000_R01_VA_allProc	123	1	"<?xml version=""1.0""?>\n<Clock xmlns:dt=""urn:schemas-microsoft-com:datatypes""><Description dt:dt=""string"">E-Prime Primary Realtime Clock</Description><StartTime><Timestamp dt:dt=""int"">0</Timestamp><DateUtc dt:dt=""string"">2021-11-11T00:16:53Z</DateUtc></StartTime><FrequencyChanges><FrequencyChange><Frequency dt:dt=""r8"">3020410</Frequency><Timestamp dt:dt=""r8"">3729533400740</Timestamp><Current dt:dt=""r8"">0</Current><DateUtc dt:dt=""string"">2021-11-11T00:16:53Z</DateUtc></FrequencyChange></FrequencyChanges></Clock>\n"	000_R01_VA_allProc-123-1	60.001	1.0.0.229	1	1502401781	Professional	2.0.10.356	2.0.10.356	11-10-2021	n/a	19:16:53	2.0.10.252	3	0	0	448107	15	448107	4000	-999999	611313	0	608137	0	Run4Proc	3	1	3	RunList	6	HighLargeED	8000	0	600137	0	600137	0	600137	0	A4HighLargeEDBlockProc	n/a	n/a	n/a	n/a	n/a	n/a	n/a	n/a	n/a	6.0	1.0	6.0	n/a	n/a	n/a	Run4BlockList	6	n/a	n/a	n/a	n/a	n/a	n/a	n/a	n/a	n/a	6.0	1.0	6.0	n/a	n/a	n/a	n/a	n/a	n/a	n/a	n/a	n/a	n/a	n/a	n/a	n/a	n/a	n/a	n/a	n/a	n/a	n/a	n/a	n/a	n/a	n/a	n/a	n/a	n/a	n/a	n/a	n/a	n/a	n/a	n/a	n/a	n/a	n/a	n/a	n/a	n/a	n/a	n/a	n/a	n/a	n/a	n/a	n/a	n/a	n/a	n/a	n/a	n/a	n/a	n/a	n/a	n/a	n/a	n/a	n/a	n/a	n/a	n/a	n/a	n/a	n/a	n/a	n/a	n/a	n/a	n/a	n/a	n/a	n/a	n/a	n/a	n/a	n/a	n/a	n/a	n/a	A4_06.jpg	500	0	599637	0	599637	0	TrialProc1	A4HighLargeEDBlockList	2500	0	597137	0	597137	0	597137	2500	d	921	598058	149.03
