onset	duration	experiment_name	sub	ses	clock_information	datafile_basename	display_refreshrate	experiment_version	group	randomseed	runtime_capabilities	runtime_version	runtimeversionexpected	session_date	session_start_date_time_utc	session_time	studio_version	block	fixation2trs_durationerror	fixation2trs_offsetdelay	fixation2trs_offsettime	fixation2trs_onsetdelay	fixation2trs_onsettime	fixation2trs_onsettoonsettime	goodwork_durationerror	goodwork_finishtime	goodwork_onsetdelay	goodwork_onsettime	goodwork_onsettoonsettime	procedure_block	runlist	runlist_cycle	runlist_sample	running_block	trial	condition	interblockinterval_duration	interblockinterval_durationerror	interblockinterval_finishtime	interblockinterval_offsetdelay	interblockinterval_offsettime	interblockinterval_onsetdelay	interblockinterval_onsettime	interblockinterval_onsettoonsettime	procedure_trial	run1blocklist	run1blocklist_cycle	run1blocklist_sample	run2blocklist	run2blocklist_cycle	run2blocklist_sample	run3blocklist	run3blocklist_cycle	run3blocklist_sample	run4blocklist	run4blocklist_cycle	run4blocklist_sample	run5blocklist	run5blocklist_cycle	run5blocklist_sample	running_trial	subtrial	a1highlargeedblocklist	a1highlargeedblocklist_cycle	a1highlargeedblocklist_sample	a2highlargeedblocklist	a2highlargeedblocklist_cycle	a2highlargeedblocklist_sample	a3highlargeedblocklist	a3highlargeedblocklist_cycle	a3highlargeedblocklist_sample	a4highlargeedblocklist	a4highlargeedblocklist_cycle	a4highlargeedblocklist_sample	a5highlargeedblocklist	a5highlargeedblocklist_cycle	a5highlargeedblocklist_sample	b1highsmalledblocklist	b1highsmalledblocklist_cycle	b1highsmalledblocklist_sample	b2highsmalledblocklist	b2highsmalledblocklist_cycle	b2highsmalledblocklist_sample	b3highsmalledblocklist	b3highsmalledblocklist_cycle	b3highsmalledblocklist_sample	b4highsmalledblocklist	b4highsmalledblocklist_cycle	b4highsmalledblocklist_sample	b5highsmalledblocklist	b5highsmalledblocklist_cycle	b5highsmalledblocklist_sample	c1lowlargeedblocklist	c1lowlargeedblocklist_cycle	c1lowlargeedblocklist_sample	c2lowlargeedblocklist	c2lowlargeedblocklist_cycle	c2lowlargeedblocklist_sample	c3lowlargeedblocklist	c3lowlargeedblocklist_cycle	c3lowlargeedblocklist_sample	c4lowlargeedblocklist	c4lowlargeedblocklist_cycle	c4lowlargeedblocklist_sample	c5lowlargeedblocklist	c5lowlargeedblocklist_cycle	c5lowlargeedblocklist_sample	d1lowsmalledblocklist	d1lowsmalledblocklist_cycle	d1lowsmalledblocklist_sample	d2highlargeedblocklist	d2highlargeedblocklist_cycle	d2highlargeedblocklist_sample	d3lowsmalledblocklist	d3lowsmalledblocklist_cycle	d3lowsmalledblocklist_sample	d4lowsmalledblocklist	d4lowsmalledblocklist_cycle	d4lowsmalledblocklist_sample	d5lowsmalledblocklist	d5lowsmalledblocklist_cycle	d5lowsmalledblocklist_sample	e1officelargeblocklist	e1officelargeblocklist_cycle	e1officelargeblocklist_sample	e2officelargeblocklist	e2officelargeblocklist_cycle	e2officelargeblocklist_sample	e3officelargeblocklist	e3officelargeblocklist_cycle	e3officelargeblocklist_sample	e4officelargeblocklist	e4officelargeblocklist_cycle	e4officelargeblocklist_sample	e5officelargeblocklist	e5officelargeblocklist_cycle	e5officelargeblocklist_sample	f1officesmallblocklist	f1officesmallblocklist_cycle	f1officesmallblocklist_sample	f2officesmallblocklist	f2officesmallblocklist_cycle	f2officesmallblocklist_sample	f3officesmallblocklist	f3officesmallblocklist_cycle	f3officesmallblocklist_sample	f4officesmallblocklist	f4officesmallblocklist_cycle	f4officesmallblocklist_sample	f5officesmallblocklist	f5officesmallblocklist_cycle	f5officesmallblocklist_sample	filename	isi_duration	isi_durationerror	isi_finishtime	isi_onsetdelay	isi_onsettime	isi_onsettoonsettime	procedure_subtrial	running_subtrial	stimslide_duration	stimslide_durationerror	stimslide_finishtime	stimslide_offsetdelay	stimslide_offsettime	stimslide_onsetdelay	stimslide_onsettime	stimslide_onsettoonsettime	stimslide_resp	stimslide_rt	stimslide_rttime	onset_unrounded
4	2.5	000_R01_VB_allProc	128	1	"<?xml version=""1.0""?>\n<Clock xmlns:dt=""urn:schemas-microsoft-com:datatypes""><Description dt:dt=""string"">E-Prime Primary Realtime Clock</Description><StartTime><Timestamp dt:dt=""int"">0</Timestamp><DateUtc dt:dt=""string"">2022-02-21T21:14:42Z</DateUtc></StartTime><FrequencyChanges><FrequencyChange><Frequency dt:dt=""r8"">3020380</Frequency><Timestamp dt:dt=""r8"">2846544542797</Timestamp><Current dt:dt=""r8"">0</Current><DateUtc dt:dt=""string"">2022-02-21T21:14:42Z</DateUtc></FrequencyChange></FrequencyChanges></Clock>\n"	000_R01_VB_allProc-128-1	60.001	1.0.0.232	1	-1018159961	Professional	2.0.10.356	2.0.10.356	02-21-2022	2/21/2022 9:14:42 PM	16:14:42	2.0.10.252	4	1	1	617362	16	617361	4000	-999999	793038	0	777360	0	Run3Proc	4	1	4	RunList	1	LowSmallED	8000	0	639361	0	639361	0	639361	0	D3LowSmallEDBlockProc	n/a	n/a	n/a	n/a	n/a	n/a	1.0	1.0	1.0	n/a	n/a	n/a	n/a	n/a	n/a	Run3BlockList	1	n/a	n/a	n/a	n/a	n/a	n/a	n/a	n/a	n/a	n/a	n/a	n/a	n/a	n/a	n/a	n/a	n/a	n/a	n/a	n/a	n/a	n/a	n/a	n/a	n/a	n/a	n/a	n/a	n/a	n/a	n/a	n/a	n/a	n/a	n/a	n/a	n/a	n/a	n/a	n/a	n/a	n/a	n/a	n/a	n/a	n/a	n/a	n/a	n/a	n/a	n/a	1.0	1.0	1.0	n/a	n/a	n/a	n/a	n/a	n/a	n/a	n/a	n/a	n/a	n/a	n/a	n/a	n/a	n/a	n/a	n/a	n/a	n/a	n/a	n/a	n/a	n/a	n/a	n/a	n/a	n/a	n/a	n/a	n/a	n/a	n/a	n/a	n/a	n/a	n/a	D3_01.jpg	500	0	623862	0	623861	0	TrialProc1	D3LowSmallEDBlockList	2500	0	621362	0	621361	0	621361	2500	c	1615	622976	4.0
7	2.5	000_R01_VB_allProc	128	1	"<?xml version=""1.0""?>\n<Clock xmlns:dt=""urn:schemas-microsoft-com:datatypes""><Description dt:dt=""string"">E-Prime Primary Realtime Clock</Description><StartTime><Timestamp dt:dt=""int"">0</Timestamp><DateUtc dt:dt=""string"">2022-02-21T21:14:42Z</DateUtc></StartTime><FrequencyChanges><FrequencyChange><Frequency dt:dt=""r8"">3020380</Frequency><Timestamp dt:dt=""r8"">2846544542797</Timestamp><Current dt:dt=""r8"">0</Current><DateUtc dt:dt=""string"">2022-02-21T21:14:42Z</DateUtc></FrequencyChange></FrequencyChanges></Clock>\n"	000_R01_VB_allProc-128-1	60.001	1.0.0.232	1	-1018159961	Professional	2.0.10.356	2.0.10.356	02-21-2022	2/21/2022 9:14:42 PM	16:14:42	2.0.10.252	4	1	1	617362	16	617361	4000	-999999	793038	0	777360	0	Run3Proc	4	1	4	RunList	1	LowSmallED	8000	0	639361	0	639361	0	639361	0	D3LowSmallEDBlockProc	n/a	n/a	n/a	n/a	n/a	n/a	1.0	1.0	1.0	n/a	n/a	n/a	n/a	n/a	n/a	Run3BlockList	2	n/a	n/a	n/a	n/a	n/a	n/a	n/a	n/a	n/a	n/a	n/a	n/a	n/a	n/a	n/a	n/a	n/a	n/a	n/a	n/a	n/a	n/a	n/a	n/a	n/a	n/a	n/a	n/a	n/a	n/a	n/a	n/a	n/a	n/a	n/a	n/a	n/a	n/a	n/a	n/a	n/a	n/a	n/a	n/a	n/a	n/a	n/a	n/a	n/a	n/a	n/a	2.0	1.0	2.0	n/a	n/a	n/a	n/a	n/a	n/a	n/a	n/a	n/a	n/a	n/a	n/a	n/a	n/a	n/a	n/a	n/a	n/a	n/a	n/a	n/a	n/a	n/a	n/a	n/a	n/a	n/a	n/a	n/a	n/a	n/a	n/a	n/a	n/a	n/a	n/a	D3_02.jpg	500	0	626861	0	626861	0	TrialProc1	D3LowSmallEDBlockList	2500	0	624361	0	624361	0	624361	2500	c	887	625248	7.0
10	2.5	000_R01_VB_allProc	128	1	"<?xml version=""1.0""?>\n<Clock xmlns:dt=""urn:schemas-microsoft-com:datatypes""><Description dt:dt=""string"">E-Prime Primary Realtime Clock</Description><StartTime><Timestamp dt:dt=""int"">0</Timestamp><DateUtc dt:dt=""string"">2022-02-21T21:14:42Z</DateUtc></StartTime><FrequencyChanges><FrequencyChange><Frequency dt:dt=""r8"">3020380</Frequency><Timestamp dt:dt=""r8"">2846544542797</Timestamp><Current dt:dt=""r8"">0</Current><DateUtc dt:dt=""string"">2022-02-21T21:14:42Z</DateUtc></FrequencyChange></FrequencyChanges></Clock>\n"	000_R01_VB_allProc-128-1	60.001	1.0.0.232	1	-1018159961	Professional	2.0.10.356	2.0.10.356	02-21-2022	2/21/2022 9:14:42 PM	16:14:42	2.0.10.252	4	1	1	617362	16	617361	4000	-999999	793038	0	777360	0	Run3Proc	4	1	4	RunList	1	LowSmallED	8000	0	639361	0	639361	0	639361	0	D3LowSmallEDBlockProc	n/a	n/a	n/a	n/a	n/a	n/a	1.0	1.0	1.0	n/a	n/a	n/a	n/a	n/a	n/a	Run3BlockList	3	n/a	n/a	n/a	n/a	n/a	n/a	n/a	n/a	n/a	n/a	n/a	n/a	n/a	n/a	n/a	n/a	n/a	n/a	n/a	n/a	n/a	n/a	n/a	n/a	n/a	n/a	n/a	n/a	n/a	n/a	n/a	n/a	n/a	n/a	n/a	n/a	n/a	n/a	n/a	n/a	n/a	n/a	n/a	n/a	n/a	n/a	n/a	n/a	n/a	n/a	n/a	3.0	1.0	3.0	n/a	n/a	n/a	n/a	n/a	n/a	n/a	n/a	n/a	n/a	n/a	n/a	n/a	n/a	n/a	n/a	n/a	n/a	n/a	n/a	n/a	n/a	n/a	n/a	n/a	n/a	n/a	n/a	n/a	n/a	n/a	n/a	n/a	n/a	n/a	n/a	D3_03.jpg	500	0	629861	0	629861	0	TrialProc1	D3LowSmallEDBlockList	2500	0	627361	0	627361	0	627361	2500	c	903	628264	10.0
13	2.5	000_R01_VB_allProc	128	1	"<?xml version=""1.0""?>\n<Clock xmlns:dt=""urn:schemas-microsoft-com:datatypes""><Description dt:dt=""string"">E-Prime Primary Realtime Clock</Description><StartTime><Timestamp dt:dt=""int"">0</Timestamp><DateUtc dt:dt=""string"">2022-02-21T21:14:42Z</DateUtc></StartTime><FrequencyChanges><FrequencyChange><Frequency dt:dt=""r8"">3020380</Frequency><Timestamp dt:dt=""r8"">2846544542797</Timestamp><Current dt:dt=""r8"">0</Current><DateUtc dt:dt=""string"">2022-02-21T21:14:42Z</DateUtc></FrequencyChange></FrequencyChanges></Clock>\n"	000_R01_VB_allProc-128-1	60.001	1.0.0.232	1	-1018159961	Professional	2.0.10.356	2.0.10.356	02-21-2022	2/21/2022 9:14:42 PM	16:14:42	2.0.10.252	4	1	1	617362	16	617361	4000	-999999	793038	0	777360	0	Run3Proc	4	1	4	RunList	1	LowSmallED	8000	0	639361	0	639361	0	639361	0	D3LowSmallEDBlockProc	n/a	n/a	n/a	n/a	n/a	n/a	1.0	1.0	1.0	n/a	n/a	n/a	n/a	n/a	n/a	Run3BlockList	4	n/a	n/a	n/a	n/a	n/a	n/a	n/a	n/a	n/a	n/a	n/a	n/a	n/a	n/a	n/a	n/a	n/a	n/a	n/a	n/a	n/a	n/a	n/a	n/a	n/a	n/a	n/a	n/a	n/a	n/a	n/a	n/a	n/a	n/a	n/a	n/a	n/a	n/a	n/a	n/a	n/a	n/a	n/a	n/a	n/a	n/a	n/a	n/a	n/a	n/a	n/a	4.0	1.0	4.0	n/a	n/a	n/a	n/a	n/a	n/a	n/a	n/a	n/a	n/a	n/a	n/a	n/a	n/a	n/a	n/a	n/a	n/a	n/a	n/a	n/a	n/a	n/a	n/a	n/a	n/a	n/a	n/a	n/a	n/a	n/a	n/a	n/a	n/a	n/a	n/a	D3_04.jpg	500	0	632861	0	632861	0	TrialProc1	D3LowSmallEDBlockList	2500	0	630361	0	630361	0	630361	2500	c	1399	631760	13.0
16	2.5	000_R01_VB_allProc	128	1	"<?xml version=""1.0""?>\n<Clock xmlns:dt=""urn:schemas-microsoft-com:datatypes""><Description dt:dt=""string"">E-Prime Primary Realtime Clock</Description><StartTime><Timestamp dt:dt=""int"">0</Timestamp><DateUtc dt:dt=""string"">2022-02-21T21:14:42Z</DateUtc></StartTime><FrequencyChanges><FrequencyChange><Frequency dt:dt=""r8"">3020380</Frequency><Timestamp dt:dt=""r8"">2846544542797</Timestamp><Current dt:dt=""r8"">0</Current><DateUtc dt:dt=""string"">2022-02-21T21:14:42Z</DateUtc></FrequencyChange></FrequencyChanges></Clock>\n"	000_R01_VB_allProc-128-1	60.001	1.0.0.232	1	-1018159961	Professional	2.0.10.356	2.0.10.356	02-21-2022	2/21/2022 9:14:42 PM	16:14:42	2.0.10.252	4	1	1	617362	16	617361	4000	-999999	793038	0	777360	0	Run3Proc	4	1	4	RunList	1	LowSmallED	8000	0	639361	0	639361	0	639361	0	D3LowSmallEDBlockProc	n/a	n/a	n/a	n/a	n/a	n/a	1.0	1.0	1.0	n/a	n/a	n/a	n/a	n/a	n/a	Run3BlockList	5	n/a	n/a	n/a	n/a	n/a	n/a	n/a	n/a	n/a	n/a	n/a	n/a	n/a	n/a	n/a	n/a	n/a	n/a	n/a	n/a	n/a	n/a	n/a	n/a	n/a	n/a	n/a	n/a	n/a	n/a	n/a	n/a	n/a	n/a	n/a	n/a	n/a	n/a	n/a	n/a	n/a	n/a	n/a	n/a	n/a	n/a	n/a	n/a	n/a	n/a	n/a	5.0	1.0	5.0	n/a	n/a	n/a	n/a	n/a	n/a	n/a	n/a	n/a	n/a	n/a	n/a	n/a	n/a	n/a	n/a	n/a	n/a	n/a	n/a	n/a	n/a	n/a	n/a	n/a	n/a	n/a	n/a	n/a	n/a	n/a	n/a	n/a	n/a	n/a	n/a	D3_05.jpg	500	0	635861	0	635861	0	TrialProc1	D3LowSmallEDBlockList	2500	0	633361	0	633361	0	633361	2500	c	967	634328	16.0
19	2.5	000_R01_VB_allProc	128	1	"<?xml version=""1.0""?>\n<Clock xmlns:dt=""urn:schemas-microsoft-com:datatypes""><Description dt:dt=""string"">E-Prime Primary Realtime Clock</Description><StartTime><Timestamp dt:dt=""int"">0</Timestamp><DateUtc dt:dt=""string"">2022-02-21T21:14:42Z</DateUtc></StartTime><FrequencyChanges><FrequencyChange><Frequency dt:dt=""r8"">3020380</Frequency><Timestamp dt:dt=""r8"">2846544542797</Timestamp><Current dt:dt=""r8"">0</Current><DateUtc dt:dt=""string"">2022-02-21T21:14:42Z</DateUtc></FrequencyChange></FrequencyChanges></Clock>\n"	000_R01_VB_allProc-128-1	60.001	1.0.0.232	1	-1018159961	Professional	2.0.10.356	2.0.10.356	02-21-2022	2/21/2022 9:14:42 PM	16:14:42	2.0.10.252	4	1	1	617362	16	617361	4000	-999999	793038	0	777360	0	Run3Proc	4	1	4	RunList	1	LowSmallED	8000	0	639361	0	639361	0	639361	0	D3LowSmallEDBlockProc	n/a	n/a	n/a	n/a	n/a	n/a	1.0	1.0	1.0	n/a	n/a	n/a	n/a	n/a	n/a	Run3BlockList	6	n/a	n/a	n/a	n/a	n/a	n/a	n/a	n/a	n/a	n/a	n/a	n/a	n/a	n/a	n/a	n/a	n/a	n/a	n/a	n/a	n/a	n/a	n/a	n/a	n/a	n/a	n/a	n/a	n/a	n/a	n/a	n/a	n/a	n/a	n/a	n/a	n/a	n/a	n/a	n/a	n/a	n/a	n/a	n/a	n/a	n/a	n/a	n/a	n/a	n/a	n/a	6.0	1.0	6.0	n/a	n/a	n/a	n/a	n/a	n/a	n/a	n/a	n/a	n/a	n/a	n/a	n/a	n/a	n/a	n/a	n/a	n/a	n/a	n/a	n/a	n/a	n/a	n/a	n/a	n/a	n/a	n/a	n/a	n/a	n/a	n/a	n/a	n/a	n/a	n/a	D3_06.jpg	500	0	638861	0	638861	0	TrialProc1	D3LowSmallEDBlockList	2500	0	636361	0	636361	0	636361	2500	c	1327	637688	19.0
30	2.5	000_R01_VB_allProc	128	1	"<?xml version=""1.0""?>\n<Clock xmlns:dt=""urn:schemas-microsoft-com:datatypes""><Description dt:dt=""string"">E-Prime Primary Realtime Clock</Description><StartTime><Timestamp dt:dt=""int"">0</Timestamp><DateUtc dt:dt=""string"">2022-02-21T21:14:42Z</DateUtc></StartTime><FrequencyChanges><FrequencyChange><Frequency dt:dt=""r8"">3020380</Frequency><Timestamp dt:dt=""r8"">2846544542797</Timestamp><Current dt:dt=""r8"">0</Current><DateUtc dt:dt=""string"">2022-02-21T21:14:42Z</DateUtc></FrequencyChange></FrequencyChanges></Clock>\n"	000_R01_VB_allProc-128-1	60.001	1.0.0.232	1	-1018159961	Professional	2.0.10.356	2.0.10.356	02-21-2022	2/21/2022 9:14:42 PM	16:14:42	2.0.10.252	4	1	1	617362	16	617361	4000	-999999	793038	0	777360	0	Run3Proc	4	1	4	RunList	2	OfficeLarge	8000	0	665361	0	665361	0	665361	0	E3OfficeLargeBlockProc	n/a	n/a	n/a	n/a	n/a	n/a	2.0	1.0	2.0	n/a	n/a	n/a	n/a	n/a	n/a	Run3BlockList	1	n/a	n/a	n/a	n/a	n/a	n/a	n/a	n/a	n/a	n/a	n/a	n/a	n/a	n/a	n/a	n/a	n/a	n/a	n/a	n/a	n/a	n/a	n/a	n/a	n/a	n/a	n/a	n/a	n/a	n/a	n/a	n/a	n/a	n/a	n/a	n/a	n/a	n/a	n/a	n/a	n/a	n/a	n/a	n/a	n/a	n/a	n/a	n/a	n/a	n/a	n/a	n/a	n/a	n/a	n/a	n/a	n/a	n/a	n/a	n/a	n/a	n/a	n/a	n/a	n/a	n/a	1.0	1.0	1.0	n/a	n/a	n/a	n/a	n/a	n/a	n/a	n/a	n/a	n/a	n/a	n/a	n/a	n/a	n/a	n/a	n/a	n/a	n/a	n/a	n/a	E3_01.jpg	500	0	649861	0	649861	0	TrialProc1	E3OfficeLargeBlockList	2500	0	647361	0	647361	0	647361	2500	n/a	0	0	30.0
33	2.5	000_R01_VB_allProc	128	1	"<?xml version=""1.0""?>\n<Clock xmlns:dt=""urn:schemas-microsoft-com:datatypes""><Description dt:dt=""string"">E-Prime Primary Realtime Clock</Description><StartTime><Timestamp dt:dt=""int"">0</Timestamp><DateUtc dt:dt=""string"">2022-02-21T21:14:42Z</DateUtc></StartTime><FrequencyChanges><FrequencyChange><Frequency dt:dt=""r8"">3020380</Frequency><Timestamp dt:dt=""r8"">2846544542797</Timestamp><Current dt:dt=""r8"">0</Current><DateUtc dt:dt=""string"">2022-02-21T21:14:42Z</DateUtc></FrequencyChange></FrequencyChanges></Clock>\n"	000_R01_VB_allProc-128-1	60.001	1.0.0.232	1	-1018159961	Professional	2.0.10.356	2.0.10.356	02-21-2022	2/21/2022 9:14:42 PM	16:14:42	2.0.10.252	4	1	1	617362	16	617361	4000	-999999	793038	0	777360	0	Run3Proc	4	1	4	RunList	2	OfficeLarge	8000	0	665361	0	665361	0	665361	0	E3OfficeLargeBlockProc	n/a	n/a	n/a	n/a	n/a	n/a	2.0	1.0	2.0	n/a	n/a	n/a	n/a	n/a	n/a	Run3BlockList	2	n/a	n/a	n/a	n/a	n/a	n/a	n/a	n/a	n/a	n/a	n/a	n/a	n/a	n/a	n/a	n/a	n/a	n/a	n/a	n/a	n/a	n/a	n/a	n/a	n/a	n/a	n/a	n/a	n/a	n/a	n/a	n/a	n/a	n/a	n/a	n/a	n/a	n/a	n/a	n/a	n/a	n/a	n/a	n/a	n/a	n/a	n/a	n/a	n/a	n/a	n/a	n/a	n/a	n/a	n/a	n/a	n/a	n/a	n/a	n/a	n/a	n/a	n/a	n/a	n/a	n/a	2.0	1.0	2.0	n/a	n/a	n/a	n/a	n/a	n/a	n/a	n/a	n/a	n/a	n/a	n/a	n/a	n/a	n/a	n/a	n/a	n/a	n/a	n/a	n/a	E3_02.jpg	500	0	652861	0	652861	0	TrialProc1	E3OfficeLargeBlockList	2500	0	650361	0	650361	0	650361	2500	c	1927	652288	33.0
36	2.5	000_R01_VB_allProc	128	1	"<?xml version=""1.0""?>\n<Clock xmlns:dt=""urn:schemas-microsoft-com:datatypes""><Description dt:dt=""string"">E-Prime Primary Realtime Clock</Description><StartTime><Timestamp dt:dt=""int"">0</Timestamp><DateUtc dt:dt=""string"">2022-02-21T21:14:42Z</DateUtc></StartTime><FrequencyChanges><FrequencyChange><Frequency dt:dt=""r8"">3020380</Frequency><Timestamp dt:dt=""r8"">2846544542797</Timestamp><Current dt:dt=""r8"">0</Current><DateUtc dt:dt=""string"">2022-02-21T21:14:42Z</DateUtc></FrequencyChange></FrequencyChanges></Clock>\n"	000_R01_VB_allProc-128-1	60.001	1.0.0.232	1	-1018159961	Professional	2.0.10.356	2.0.10.356	02-21-2022	2/21/2022 9:14:42 PM	16:14:42	2.0.10.252	4	1	1	617362	16	617361	4000	-999999	793038	0	777360	0	Run3Proc	4	1	4	RunList	2	OfficeLarge	8000	0	665361	0	665361	0	665361	0	E3OfficeLargeBlockProc	n/a	n/a	n/a	n/a	n/a	n/a	2.0	1.0	2.0	n/a	n/a	n/a	n/a	n/a	n/a	Run3BlockList	3	n/a	n/a	n/a	n/a	n/a	n/a	n/a	n/a	n/a	n/a	n/a	n/a	n/a	n/a	n/a	n/a	n/a	n/a	n/a	n/a	n/a	n/a	n/a	n/a	n/a	n/a	n/a	n/a	n/a	n/a	n/a	n/a	n/a	n/a	n/a	n/a	n/a	n/a	n/a	n/a	n/a	n/a	n/a	n/a	n/a	n/a	n/a	n/a	n/a	n/a	n/a	n/a	n/a	n/a	n/a	n/a	n/a	n/a	n/a	n/a	n/a	n/a	n/a	n/a	n/a	n/a	3.0	1.0	3.0	n/a	n/a	n/a	n/a	n/a	n/a	n/a	n/a	n/a	n/a	n/a	n/a	n/a	n/a	n/a	n/a	n/a	n/a	n/a	n/a	n/a	E3_03.jpg	500	0	655861	0	655861	0	TrialProc1	E3OfficeLargeBlockList	2500	0	653361	0	653361	0	653361	2500	c	1663	655024	36.0
39	2.5	000_R01_VB_allProc	128	1	"<?xml version=""1.0""?>\n<Clock xmlns:dt=""urn:schemas-microsoft-com:datatypes""><Description dt:dt=""string"">E-Prime Primary Realtime Clock</Description><StartTime><Timestamp dt:dt=""int"">0</Timestamp><DateUtc dt:dt=""string"">2022-02-21T21:14:42Z</DateUtc></StartTime><FrequencyChanges><FrequencyChange><Frequency dt:dt=""r8"">3020380</Frequency><Timestamp dt:dt=""r8"">2846544542797</Timestamp><Current dt:dt=""r8"">0</Current><DateUtc dt:dt=""string"">2022-02-21T21:14:42Z</DateUtc></FrequencyChange></FrequencyChanges></Clock>\n"	000_R01_VB_allProc-128-1	60.001	1.0.0.232	1	-1018159961	Professional	2.0.10.356	2.0.10.356	02-21-2022	2/21/2022 9:14:42 PM	16:14:42	2.0.10.252	4	1	1	617362	16	617361	4000	-999999	793038	0	777360	0	Run3Proc	4	1	4	RunList	2	OfficeLarge	8000	0	665361	0	665361	0	665361	0	E3OfficeLargeBlockProc	n/a	n/a	n/a	n/a	n/a	n/a	2.0	1.0	2.0	n/a	n/a	n/a	n/a	n/a	n/a	Run3BlockList	4	n/a	n/a	n/a	n/a	n/a	n/a	n/a	n/a	n/a	n/a	n/a	n/a	n/a	n/a	n/a	n/a	n/a	n/a	n/a	n/a	n/a	n/a	n/a	n/a	n/a	n/a	n/a	n/a	n/a	n/a	n/a	n/a	n/a	n/a	n/a	n/a	n/a	n/a	n/a	n/a	n/a	n/a	n/a	n/a	n/a	n/a	n/a	n/a	n/a	n/a	n/a	n/a	n/a	n/a	n/a	n/a	n/a	n/a	n/a	n/a	n/a	n/a	n/a	n/a	n/a	n/a	4.0	1.0	4.0	n/a	n/a	n/a	n/a	n/a	n/a	n/a	n/a	n/a	n/a	n/a	n/a	n/a	n/a	n/a	n/a	n/a	n/a	n/a	n/a	n/a	E3_04.jpg	500	0	658861	0	658861	0	TrialProc1	E3OfficeLargeBlockList	2500	0	656361	0	656361	0	656361	2500	c	1135	657496	39.0
42	2.5	000_R01_VB_allProc	128	1	"<?xml version=""1.0""?>\n<Clock xmlns:dt=""urn:schemas-microsoft-com:datatypes""><Description dt:dt=""string"">E-Prime Primary Realtime Clock</Description><StartTime><Timestamp dt:dt=""int"">0</Timestamp><DateUtc dt:dt=""string"">2022-02-21T21:14:42Z</DateUtc></StartTime><FrequencyChanges><FrequencyChange><Frequency dt:dt=""r8"">3020380</Frequency><Timestamp dt:dt=""r8"">2846544542797</Timestamp><Current dt:dt=""r8"">0</Current><DateUtc dt:dt=""string"">2022-02-21T21:14:42Z</DateUtc></FrequencyChange></FrequencyChanges></Clock>\n"	000_R01_VB_allProc-128-1	60.001	1.0.0.232	1	-1018159961	Professional	2.0.10.356	2.0.10.356	02-21-2022	2/21/2022 9:14:42 PM	16:14:42	2.0.10.252	4	1	1	617362	16	617361	4000	-999999	793038	0	777360	0	Run3Proc	4	1	4	RunList	2	OfficeLarge	8000	0	665361	0	665361	0	665361	0	E3OfficeLargeBlockProc	n/a	n/a	n/a	n/a	n/a	n/a	2.0	1.0	2.0	n/a	n/a	n/a	n/a	n/a	n/a	Run3BlockList	5	n/a	n/a	n/a	n/a	n/a	n/a	n/a	n/a	n/a	n/a	n/a	n/a	n/a	n/a	n/a	n/a	n/a	n/a	n/a	n/a	n/a	n/a	n/a	n/a	n/a	n/a	n/a	n/a	n/a	n/a	n/a	n/a	n/a	n/a	n/a	n/a	n/a	n/a	n/a	n/a	n/a	n/a	n/a	n/a	n/a	n/a	n/a	n/a	n/a	n/a	n/a	n/a	n/a	n/a	n/a	n/a	n/a	n/a	n/a	n/a	n/a	n/a	n/a	n/a	n/a	n/a	5.0	1.0	5.0	n/a	n/a	n/a	n/a	n/a	n/a	n/a	n/a	n/a	n/a	n/a	n/a	n/a	n/a	n/a	n/a	n/a	n/a	n/a	n/a	n/a	E3_05.jpg	500	0	661861	0	661861	0	TrialProc1	E3OfficeLargeBlockList	2500	0	659361	0	659361	0	659361	2500	d	1007	660368	42.0
45	2.5	000_R01_VB_allProc	128	1	"<?xml version=""1.0""?>\n<Clock xmlns:dt=""urn:schemas-microsoft-com:datatypes""><Description dt:dt=""string"">E-Prime Primary Realtime Clock</Description><StartTime><Timestamp dt:dt=""int"">0</Timestamp><DateUtc dt:dt=""string"">2022-02-21T21:14:42Z</DateUtc></StartTime><FrequencyChanges><FrequencyChange><Frequency dt:dt=""r8"">3020380</Frequency><Timestamp dt:dt=""r8"">2846544542797</Timestamp><Current dt:dt=""r8"">0</Current><DateUtc dt:dt=""string"">2022-02-21T21:14:42Z</DateUtc></FrequencyChange></FrequencyChanges></Clock>\n"	000_R01_VB_allProc-128-1	60.001	1.0.0.232	1	-1018159961	Professional	2.0.10.356	2.0.10.356	02-21-2022	2/21/2022 9:14:42 PM	16:14:42	2.0.10.252	4	1	1	617362	16	617361	4000	-999999	793038	0	777360	0	Run3Proc	4	1	4	RunList	2	OfficeLarge	8000	0	665361	0	665361	0	665361	0	E3OfficeLargeBlockProc	n/a	n/a	n/a	n/a	n/a	n/a	2.0	1.0	2.0	n/a	n/a	n/a	n/a	n/a	n/a	Run3BlockList	6	n/a	n/a	n/a	n/a	n/a	n/a	n/a	n/a	n/a	n/a	n/a	n/a	n/a	n/a	n/a	n/a	n/a	n/a	n/a	n/a	n/a	n/a	n/a	n/a	n/a	n/a	n/a	n/a	n/a	n/a	n/a	n/a	n/a	n/a	n/a	n/a	n/a	n/a	n/a	n/a	n/a	n/a	n/a	n/a	n/a	n/a	n/a	n/a	n/a	n/a	n/a	n/a	n/a	n/a	n/a	n/a	n/a	n/a	n/a	n/a	n/a	n/a	n/a	n/a	n/a	n/a	6.0	1.0	6.0	n/a	n/a	n/a	n/a	n/a	n/a	n/a	n/a	n/a	n/a	n/a	n/a	n/a	n/a	n/a	n/a	n/a	n/a	n/a	n/a	n/a	E3_06.jpg	500	0	664861	0	664861	0	TrialProc1	E3OfficeLargeBlockList	2500	0	662361	0	662361	0	662361	2500	d	2214	664575	45.0
56	2.5	000_R01_VB_allProc	128	1	"<?xml version=""1.0""?>\n<Clock xmlns:dt=""urn:schemas-microsoft-com:datatypes""><Description dt:dt=""string"">E-Prime Primary Realtime Clock</Description><StartTime><Timestamp dt:dt=""int"">0</Timestamp><DateUtc dt:dt=""string"">2022-02-21T21:14:42Z</DateUtc></StartTime><FrequencyChanges><FrequencyChange><Frequency dt:dt=""r8"">3020380</Frequency><Timestamp dt:dt=""r8"">2846544542797</Timestamp><Current dt:dt=""r8"">0</Current><DateUtc dt:dt=""string"">2022-02-21T21:14:42Z</DateUtc></FrequencyChange></FrequencyChanges></Clock>\n"	000_R01_VB_allProc-128-1	60.001	1.0.0.232	1	-1018159961	Professional	2.0.10.356	2.0.10.356	02-21-2022	2/21/2022 9:14:42 PM	16:14:42	2.0.10.252	4	1	1	617362	16	617361	4000	-999999	793038	0	777360	0	Run3Proc	4	1	4	RunList	3	HighSmallED	8000	0	691361	0	691361	0	691361	0	B3HighSmallEDBlockProc	n/a	n/a	n/a	n/a	n/a	n/a	3.0	1.0	3.0	n/a	n/a	n/a	n/a	n/a	n/a	Run3BlockList	1	n/a	n/a	n/a	n/a	n/a	n/a	n/a	n/a	n/a	n/a	n/a	n/a	n/a	n/a	n/a	n/a	n/a	n/a	n/a	n/a	n/a	1.0	1.0	1.0	n/a	n/a	n/a	n/a	n/a	n/a	n/a	n/a	n/a	n/a	n/a	n/a	n/a	n/a	n/a	n/a	n/a	n/a	n/a	n/a	n/a	n/a	n/a	n/a	n/a	n/a	n/a	n/a	n/a	n/a	n/a	n/a	n/a	n/a	n/a	n/a	n/a	n/a	n/a	n/a	n/a	n/a	n/a	n/a	n/a	n/a	n/a	n/a	n/a	n/a	n/a	n/a	n/a	n/a	n/a	n/a	n/a	n/a	n/a	n/a	n/a	n/a	n/a	n/a	n/a	n/a	B3_01.jpg	500	0	675861	0	675861	0	TrialProc1	B3HighSmallEDBlockList	2500	0	673361	0	673361	0	673361	2500	n/a	0	0	56.0
59	2.5	000_R01_VB_allProc	128	1	"<?xml version=""1.0""?>\n<Clock xmlns:dt=""urn:schemas-microsoft-com:datatypes""><Description dt:dt=""string"">E-Prime Primary Realtime Clock</Description><StartTime><Timestamp dt:dt=""int"">0</Timestamp><DateUtc dt:dt=""string"">2022-02-21T21:14:42Z</DateUtc></StartTime><FrequencyChanges><FrequencyChange><Frequency dt:dt=""r8"">3020380</Frequency><Timestamp dt:dt=""r8"">2846544542797</Timestamp><Current dt:dt=""r8"">0</Current><DateUtc dt:dt=""string"">2022-02-21T21:14:42Z</DateUtc></FrequencyChange></FrequencyChanges></Clock>\n"	000_R01_VB_allProc-128-1	60.001	1.0.0.232	1	-1018159961	Professional	2.0.10.356	2.0.10.356	02-21-2022	2/21/2022 9:14:42 PM	16:14:42	2.0.10.252	4	1	1	617362	16	617361	4000	-999999	793038	0	777360	0	Run3Proc	4	1	4	RunList	3	HighSmallED	8000	0	691361	0	691361	0	691361	0	B3HighSmallEDBlockProc	n/a	n/a	n/a	n/a	n/a	n/a	3.0	1.0	3.0	n/a	n/a	n/a	n/a	n/a	n/a	Run3BlockList	2	n/a	n/a	n/a	n/a	n/a	n/a	n/a	n/a	n/a	n/a	n/a	n/a	n/a	n/a	n/a	n/a	n/a	n/a	n/a	n/a	n/a	2.0	1.0	2.0	n/a	n/a	n/a	n/a	n/a	n/a	n/a	n/a	n/a	n/a	n/a	n/a	n/a	n/a	n/a	n/a	n/a	n/a	n/a	n/a	n/a	n/a	n/a	n/a	n/a	n/a	n/a	n/a	n/a	n/a	n/a	n/a	n/a	n/a	n/a	n/a	n/a	n/a	n/a	n/a	n/a	n/a	n/a	n/a	n/a	n/a	n/a	n/a	n/a	n/a	n/a	n/a	n/a	n/a	n/a	n/a	n/a	n/a	n/a	n/a	n/a	n/a	n/a	n/a	n/a	n/a	B3_02.jpg	500	0	678861	0	678861	0	TrialProc1	B3HighSmallEDBlockList	2500	0	676361	0	676361	0	676361	2500	d	1206	677567	59.0
62	2.5	000_R01_VB_allProc	128	1	"<?xml version=""1.0""?>\n<Clock xmlns:dt=""urn:schemas-microsoft-com:datatypes""><Description dt:dt=""string"">E-Prime Primary Realtime Clock</Description><StartTime><Timestamp dt:dt=""int"">0</Timestamp><DateUtc dt:dt=""string"">2022-02-21T21:14:42Z</DateUtc></StartTime><FrequencyChanges><FrequencyChange><Frequency dt:dt=""r8"">3020380</Frequency><Timestamp dt:dt=""r8"">2846544542797</Timestamp><Current dt:dt=""r8"">0</Current><DateUtc dt:dt=""string"">2022-02-21T21:14:42Z</DateUtc></FrequencyChange></FrequencyChanges></Clock>\n"	000_R01_VB_allProc-128-1	60.001	1.0.0.232	1	-1018159961	Professional	2.0.10.356	2.0.10.356	02-21-2022	2/21/2022 9:14:42 PM	16:14:42	2.0.10.252	4	1	1	617362	16	617361	4000	-999999	793038	0	777360	0	Run3Proc	4	1	4	RunList	3	HighSmallED	8000	0	691361	0	691361	0	691361	0	B3HighSmallEDBlockProc	n/a	n/a	n/a	n/a	n/a	n/a	3.0	1.0	3.0	n/a	n/a	n/a	n/a	n/a	n/a	Run3BlockList	3	n/a	n/a	n/a	n/a	n/a	n/a	n/a	n/a	n/a	n/a	n/a	n/a	n/a	n/a	n/a	n/a	n/a	n/a	n/a	n/a	n/a	3.0	1.0	3.0	n/a	n/a	n/a	n/a	n/a	n/a	n/a	n/a	n/a	n/a	n/a	n/a	n/a	n/a	n/a	n/a	n/a	n/a	n/a	n/a	n/a	n/a	n/a	n/a	n/a	n/a	n/a	n/a	n/a	n/a	n/a	n/a	n/a	n/a	n/a	n/a	n/a	n/a	n/a	n/a	n/a	n/a	n/a	n/a	n/a	n/a	n/a	n/a	n/a	n/a	n/a	n/a	n/a	n/a	n/a	n/a	n/a	n/a	n/a	n/a	n/a	n/a	n/a	n/a	n/a	n/a	B3_03.jpg	500	0	681861	0	681861	0	TrialProc1	B3HighSmallEDBlockList	2500	0	679361	0	679361	0	679361	2500	c	1238	680599	62.0
65	2.5	000_R01_VB_allProc	128	1	"<?xml version=""1.0""?>\n<Clock xmlns:dt=""urn:schemas-microsoft-com:datatypes""><Description dt:dt=""string"">E-Prime Primary Realtime Clock</Description><StartTime><Timestamp dt:dt=""int"">0</Timestamp><DateUtc dt:dt=""string"">2022-02-21T21:14:42Z</DateUtc></StartTime><FrequencyChanges><FrequencyChange><Frequency dt:dt=""r8"">3020380</Frequency><Timestamp dt:dt=""r8"">2846544542797</Timestamp><Current dt:dt=""r8"">0</Current><DateUtc dt:dt=""string"">2022-02-21T21:14:42Z</DateUtc></FrequencyChange></FrequencyChanges></Clock>\n"	000_R01_VB_allProc-128-1	60.001	1.0.0.232	1	-1018159961	Professional	2.0.10.356	2.0.10.356	02-21-2022	2/21/2022 9:14:42 PM	16:14:42	2.0.10.252	4	1	1	617362	16	617361	4000	-999999	793038	0	777360	0	Run3Proc	4	1	4	RunList	3	HighSmallED	8000	0	691361	0	691361	0	691361	0	B3HighSmallEDBlockProc	n/a	n/a	n/a	n/a	n/a	n/a	3.0	1.0	3.0	n/a	n/a	n/a	n/a	n/a	n/a	Run3BlockList	4	n/a	n/a	n/a	n/a	n/a	n/a	n/a	n/a	n/a	n/a	n/a	n/a	n/a	n/a	n/a	n/a	n/a	n/a	n/a	n/a	n/a	4.0	1.0	4.0	n/a	n/a	n/a	n/a	n/a	n/a	n/a	n/a	n/a	n/a	n/a	n/a	n/a	n/a	n/a	n/a	n/a	n/a	n/a	n/a	n/a	n/a	n/a	n/a	n/a	n/a	n/a	n/a	n/a	n/a	n/a	n/a	n/a	n/a	n/a	n/a	n/a	n/a	n/a	n/a	n/a	n/a	n/a	n/a	n/a	n/a	n/a	n/a	n/a	n/a	n/a	n/a	n/a	n/a	n/a	n/a	n/a	n/a	n/a	n/a	n/a	n/a	n/a	n/a	n/a	n/a	B3_04.jpg	500	0	684861	0	684861	0	TrialProc1	B3HighSmallEDBlockList	2500	0	682361	0	682361	0	682361	2500	d	1070	683431	65.0
68	2.5	000_R01_VB_allProc	128	1	"<?xml version=""1.0""?>\n<Clock xmlns:dt=""urn:schemas-microsoft-com:datatypes""><Description dt:dt=""string"">E-Prime Primary Realtime Clock</Description><StartTime><Timestamp dt:dt=""int"">0</Timestamp><DateUtc dt:dt=""string"">2022-02-21T21:14:42Z</DateUtc></StartTime><FrequencyChanges><FrequencyChange><Frequency dt:dt=""r8"">3020380</Frequency><Timestamp dt:dt=""r8"">2846544542797</Timestamp><Current dt:dt=""r8"">0</Current><DateUtc dt:dt=""string"">2022-02-21T21:14:42Z</DateUtc></FrequencyChange></FrequencyChanges></Clock>\n"	000_R01_VB_allProc-128-1	60.001	1.0.0.232	1	-1018159961	Professional	2.0.10.356	2.0.10.356	02-21-2022	2/21/2022 9:14:42 PM	16:14:42	2.0.10.252	4	1	1	617362	16	617361	4000	-999999	793038	0	777360	0	Run3Proc	4	1	4	RunList	3	HighSmallED	8000	0	691361	0	691361	0	691361	0	B3HighSmallEDBlockProc	n/a	n/a	n/a	n/a	n/a	n/a	3.0	1.0	3.0	n/a	n/a	n/a	n/a	n/a	n/a	Run3BlockList	5	n/a	n/a	n/a	n/a	n/a	n/a	n/a	n/a	n/a	n/a	n/a	n/a	n/a	n/a	n/a	n/a	n/a	n/a	n/a	n/a	n/a	5.0	1.0	5.0	n/a	n/a	n/a	n/a	n/a	n/a	n/a	n/a	n/a	n/a	n/a	n/a	n/a	n/a	n/a	n/a	n/a	n/a	n/a	n/a	n/a	n/a	n/a	n/a	n/a	n/a	n/a	n/a	n/a	n/a	n/a	n/a	n/a	n/a	n/a	n/a	n/a	n/a	n/a	n/a	n/a	n/a	n/a	n/a	n/a	n/a	n/a	n/a	n/a	n/a	n/a	n/a	n/a	n/a	n/a	n/a	n/a	n/a	n/a	n/a	n/a	n/a	n/a	n/a	n/a	n/a	B3_05.jpg	500	0	687861	0	687861	0	TrialProc1	B3HighSmallEDBlockList	2500	0	685361	0	685361	0	685361	2500	d	1550	686911	68.0
71	2.5	000_R01_VB_allProc	128	1	"<?xml version=""1.0""?>\n<Clock xmlns:dt=""urn:schemas-microsoft-com:datatypes""><Description dt:dt=""string"">E-Prime Primary Realtime Clock</Description><StartTime><Timestamp dt:dt=""int"">0</Timestamp><DateUtc dt:dt=""string"">2022-02-21T21:14:42Z</DateUtc></StartTime><FrequencyChanges><FrequencyChange><Frequency dt:dt=""r8"">3020380</Frequency><Timestamp dt:dt=""r8"">2846544542797</Timestamp><Current dt:dt=""r8"">0</Current><DateUtc dt:dt=""string"">2022-02-21T21:14:42Z</DateUtc></FrequencyChange></FrequencyChanges></Clock>\n"	000_R01_VB_allProc-128-1	60.001	1.0.0.232	1	-1018159961	Professional	2.0.10.356	2.0.10.356	02-21-2022	2/21/2022 9:14:42 PM	16:14:42	2.0.10.252	4	1	1	617362	16	617361	4000	-999999	793038	0	777360	0	Run3Proc	4	1	4	RunList	3	HighSmallED	8000	0	691361	0	691361	0	691361	0	B3HighSmallEDBlockProc	n/a	n/a	n/a	n/a	n/a	n/a	3.0	1.0	3.0	n/a	n/a	n/a	n/a	n/a	n/a	Run3BlockList	6	n/a	n/a	n/a	n/a	n/a	n/a	n/a	n/a	n/a	n/a	n/a	n/a	n/a	n/a	n/a	n/a	n/a	n/a	n/a	n/a	n/a	6.0	1.0	6.0	n/a	n/a	n/a	n/a	n/a	n/a	n/a	n/a	n/a	n/a	n/a	n/a	n/a	n/a	n/a	n/a	n/a	n/a	n/a	n/a	n/a	n/a	n/a	n/a	n/a	n/a	n/a	n/a	n/a	n/a	n/a	n/a	n/a	n/a	n/a	n/a	n/a	n/a	n/a	n/a	n/a	n/a	n/a	n/a	n/a	n/a	n/a	n/a	n/a	n/a	n/a	n/a	n/a	n/a	n/a	n/a	n/a	n/a	n/a	n/a	n/a	n/a	n/a	n/a	n/a	n/a	B3_06.jpg	500	0	690861	0	690861	0	TrialProc1	B3HighSmallEDBlockList	2500	0	688361	0	688361	0	688361	2500	d	126	688487	71.0
82	2.5	000_R01_VB_allProc	128	1	"<?xml version=""1.0""?>\n<Clock xmlns:dt=""urn:schemas-microsoft-com:datatypes""><Description dt:dt=""string"">E-Prime Primary Realtime Clock</Description><StartTime><Timestamp dt:dt=""int"">0</Timestamp><DateUtc dt:dt=""string"">2022-02-21T21:14:42Z</DateUtc></StartTime><FrequencyChanges><FrequencyChange><Frequency dt:dt=""r8"">3020380</Frequency><Timestamp dt:dt=""r8"">2846544542797</Timestamp><Current dt:dt=""r8"">0</Current><DateUtc dt:dt=""string"">2022-02-21T21:14:42Z</DateUtc></FrequencyChange></FrequencyChanges></Clock>\n"	000_R01_VB_allProc-128-1	60.001	1.0.0.232	1	-1018159961	Professional	2.0.10.356	2.0.10.356	02-21-2022	2/21/2022 9:14:42 PM	16:14:42	2.0.10.252	4	1	1	617362	16	617361	4000	-999999	793038	0	777360	0	Run3Proc	4	1	4	RunList	4	OfficeSmall	8000	0	717360	0	717360	0	717360	0	F3OfficeSmallBlockProc	n/a	n/a	n/a	n/a	n/a	n/a	4.0	1.0	4.0	n/a	n/a	n/a	n/a	n/a	n/a	Run3BlockList	1	n/a	n/a	n/a	n/a	n/a	n/a	n/a	n/a	n/a	n/a	n/a	n/a	n/a	n/a	n/a	n/a	n/a	n/a	n/a	n/a	n/a	n/a	n/a	n/a	n/a	n/a	n/a	n/a	n/a	n/a	n/a	n/a	n/a	n/a	n/a	n/a	n/a	n/a	n/a	n/a	n/a	n/a	n/a	n/a	n/a	n/a	n/a	n/a	n/a	n/a	n/a	n/a	n/a	n/a	n/a	n/a	n/a	n/a	n/a	n/a	n/a	n/a	n/a	n/a	n/a	n/a	n/a	n/a	n/a	n/a	n/a	n/a	n/a	n/a	n/a	n/a	n/a	n/a	n/a	n/a	n/a	1.0	1.0	1.0	n/a	n/a	n/a	n/a	n/a	n/a	F3_01.jpg	500	1	701861	0	701860	0	TrialProc1	F3OfficeSmallBlockList	2500	1	699361	1	699361	-1	699360	2500	n/a	0	0	81.999
85	2.5	000_R01_VB_allProc	128	1	"<?xml version=""1.0""?>\n<Clock xmlns:dt=""urn:schemas-microsoft-com:datatypes""><Description dt:dt=""string"">E-Prime Primary Realtime Clock</Description><StartTime><Timestamp dt:dt=""int"">0</Timestamp><DateUtc dt:dt=""string"">2022-02-21T21:14:42Z</DateUtc></StartTime><FrequencyChanges><FrequencyChange><Frequency dt:dt=""r8"">3020380</Frequency><Timestamp dt:dt=""r8"">2846544542797</Timestamp><Current dt:dt=""r8"">0</Current><DateUtc dt:dt=""string"">2022-02-21T21:14:42Z</DateUtc></FrequencyChange></FrequencyChanges></Clock>\n"	000_R01_VB_allProc-128-1	60.001	1.0.0.232	1	-1018159961	Professional	2.0.10.356	2.0.10.356	02-21-2022	2/21/2022 9:14:42 PM	16:14:42	2.0.10.252	4	1	1	617362	16	617361	4000	-999999	793038	0	777360	0	Run3Proc	4	1	4	RunList	4	OfficeSmall	8000	0	717360	0	717360	0	717360	0	F3OfficeSmallBlockProc	n/a	n/a	n/a	n/a	n/a	n/a	4.0	1.0	4.0	n/a	n/a	n/a	n/a	n/a	n/a	Run3BlockList	2	n/a	n/a	n/a	n/a	n/a	n/a	n/a	n/a	n/a	n/a	n/a	n/a	n/a	n/a	n/a	n/a	n/a	n/a	n/a	n/a	n/a	n/a	n/a	n/a	n/a	n/a	n/a	n/a	n/a	n/a	n/a	n/a	n/a	n/a	n/a	n/a	n/a	n/a	n/a	n/a	n/a	n/a	n/a	n/a	n/a	n/a	n/a	n/a	n/a	n/a	n/a	n/a	n/a	n/a	n/a	n/a	n/a	n/a	n/a	n/a	n/a	n/a	n/a	n/a	n/a	n/a	n/a	n/a	n/a	n/a	n/a	n/a	n/a	n/a	n/a	n/a	n/a	n/a	n/a	n/a	n/a	2.0	1.0	2.0	n/a	n/a	n/a	n/a	n/a	n/a	F3_02.jpg	500	0	704861	0	704860	0	TrialProc1	F3OfficeSmallBlockList	2500	1	702361	1	702361	0	702360	2500	d	727	703087	84.999
88	2.5	000_R01_VB_allProc	128	1	"<?xml version=""1.0""?>\n<Clock xmlns:dt=""urn:schemas-microsoft-com:datatypes""><Description dt:dt=""string"">E-Prime Primary Realtime Clock</Description><StartTime><Timestamp dt:dt=""int"">0</Timestamp><DateUtc dt:dt=""string"">2022-02-21T21:14:42Z</DateUtc></StartTime><FrequencyChanges><FrequencyChange><Frequency dt:dt=""r8"">3020380</Frequency><Timestamp dt:dt=""r8"">2846544542797</Timestamp><Current dt:dt=""r8"">0</Current><DateUtc dt:dt=""string"">2022-02-21T21:14:42Z</DateUtc></FrequencyChange></FrequencyChanges></Clock>\n"	000_R01_VB_allProc-128-1	60.001	1.0.0.232	1	-1018159961	Professional	2.0.10.356	2.0.10.356	02-21-2022	2/21/2022 9:14:42 PM	16:14:42	2.0.10.252	4	1	1	617362	16	617361	4000	-999999	793038	0	777360	0	Run3Proc	4	1	4	RunList	4	OfficeSmall	8000	0	717360	0	717360	0	717360	0	F3OfficeSmallBlockProc	n/a	n/a	n/a	n/a	n/a	n/a	4.0	1.0	4.0	n/a	n/a	n/a	n/a	n/a	n/a	Run3BlockList	3	n/a	n/a	n/a	n/a	n/a	n/a	n/a	n/a	n/a	n/a	n/a	n/a	n/a	n/a	n/a	n/a	n/a	n/a	n/a	n/a	n/a	n/a	n/a	n/a	n/a	n/a	n/a	n/a	n/a	n/a	n/a	n/a	n/a	n/a	n/a	n/a	n/a	n/a	n/a	n/a	n/a	n/a	n/a	n/a	n/a	n/a	n/a	n/a	n/a	n/a	n/a	n/a	n/a	n/a	n/a	n/a	n/a	n/a	n/a	n/a	n/a	n/a	n/a	n/a	n/a	n/a	n/a	n/a	n/a	n/a	n/a	n/a	n/a	n/a	n/a	n/a	n/a	n/a	n/a	n/a	n/a	3.0	1.0	3.0	n/a	n/a	n/a	n/a	n/a	n/a	F3_03.jpg	500	0	707860	0	707860	0	TrialProc1	F3OfficeSmallBlockList	2500	0	705360	0	705360	0	705360	2500	d	1431	706791	87.999
91	2.5	000_R01_VB_allProc	128	1	"<?xml version=""1.0""?>\n<Clock xmlns:dt=""urn:schemas-microsoft-com:datatypes""><Description dt:dt=""string"">E-Prime Primary Realtime Clock</Description><StartTime><Timestamp dt:dt=""int"">0</Timestamp><DateUtc dt:dt=""string"">2022-02-21T21:14:42Z</DateUtc></StartTime><FrequencyChanges><FrequencyChange><Frequency dt:dt=""r8"">3020380</Frequency><Timestamp dt:dt=""r8"">2846544542797</Timestamp><Current dt:dt=""r8"">0</Current><DateUtc dt:dt=""string"">2022-02-21T21:14:42Z</DateUtc></FrequencyChange></FrequencyChanges></Clock>\n"	000_R01_VB_allProc-128-1	60.001	1.0.0.232	1	-1018159961	Professional	2.0.10.356	2.0.10.356	02-21-2022	2/21/2022 9:14:42 PM	16:14:42	2.0.10.252	4	1	1	617362	16	617361	4000	-999999	793038	0	777360	0	Run3Proc	4	1	4	RunList	4	OfficeSmall	8000	0	717360	0	717360	0	717360	0	F3OfficeSmallBlockProc	n/a	n/a	n/a	n/a	n/a	n/a	4.0	1.0	4.0	n/a	n/a	n/a	n/a	n/a	n/a	Run3BlockList	4	n/a	n/a	n/a	n/a	n/a	n/a	n/a	n/a	n/a	n/a	n/a	n/a	n/a	n/a	n/a	n/a	n/a	n/a	n/a	n/a	n/a	n/a	n/a	n/a	n/a	n/a	n/a	n/a	n/a	n/a	n/a	n/a	n/a	n/a	n/a	n/a	n/a	n/a	n/a	n/a	n/a	n/a	n/a	n/a	n/a	n/a	n/a	n/a	n/a	n/a	n/a	n/a	n/a	n/a	n/a	n/a	n/a	n/a	n/a	n/a	n/a	n/a	n/a	n/a	n/a	n/a	n/a	n/a	n/a	n/a	n/a	n/a	n/a	n/a	n/a	n/a	n/a	n/a	n/a	n/a	n/a	4.0	1.0	4.0	n/a	n/a	n/a	n/a	n/a	n/a	F3_04.jpg	500	0	710860	0	710860	0	TrialProc1	F3OfficeSmallBlockList	2500	0	708360	0	708360	0	708360	2500	d	1903	710263	90.999
94	2.5	000_R01_VB_allProc	128	1	"<?xml version=""1.0""?>\n<Clock xmlns:dt=""urn:schemas-microsoft-com:datatypes""><Description dt:dt=""string"">E-Prime Primary Realtime Clock</Description><StartTime><Timestamp dt:dt=""int"">0</Timestamp><DateUtc dt:dt=""string"">2022-02-21T21:14:42Z</DateUtc></StartTime><FrequencyChanges><FrequencyChange><Frequency dt:dt=""r8"">3020380</Frequency><Timestamp dt:dt=""r8"">2846544542797</Timestamp><Current dt:dt=""r8"">0</Current><DateUtc dt:dt=""string"">2022-02-21T21:14:42Z</DateUtc></FrequencyChange></FrequencyChanges></Clock>\n"	000_R01_VB_allProc-128-1	60.001	1.0.0.232	1	-1018159961	Professional	2.0.10.356	2.0.10.356	02-21-2022	2/21/2022 9:14:42 PM	16:14:42	2.0.10.252	4	1	1	617362	16	617361	4000	-999999	793038	0	777360	0	Run3Proc	4	1	4	RunList	4	OfficeSmall	8000	0	717360	0	717360	0	717360	0	F3OfficeSmallBlockProc	n/a	n/a	n/a	n/a	n/a	n/a	4.0	1.0	4.0	n/a	n/a	n/a	n/a	n/a	n/a	Run3BlockList	5	n/a	n/a	n/a	n/a	n/a	n/a	n/a	n/a	n/a	n/a	n/a	n/a	n/a	n/a	n/a	n/a	n/a	n/a	n/a	n/a	n/a	n/a	n/a	n/a	n/a	n/a	n/a	n/a	n/a	n/a	n/a	n/a	n/a	n/a	n/a	n/a	n/a	n/a	n/a	n/a	n/a	n/a	n/a	n/a	n/a	n/a	n/a	n/a	n/a	n/a	n/a	n/a	n/a	n/a	n/a	n/a	n/a	n/a	n/a	n/a	n/a	n/a	n/a	n/a	n/a	n/a	n/a	n/a	n/a	n/a	n/a	n/a	n/a	n/a	n/a	n/a	n/a	n/a	n/a	n/a	n/a	5.0	1.0	5.0	n/a	n/a	n/a	n/a	n/a	n/a	F3_05.jpg	500	0	713860	0	713860	0	TrialProc1	F3OfficeSmallBlockList	2500	0	711360	0	711360	0	711360	2500	d	1423	712783	93.999
97	2.5	000_R01_VB_allProc	128	1	"<?xml version=""1.0""?>\n<Clock xmlns:dt=""urn:schemas-microsoft-com:datatypes""><Description dt:dt=""string"">E-Prime Primary Realtime Clock</Description><StartTime><Timestamp dt:dt=""int"">0</Timestamp><DateUtc dt:dt=""string"">2022-02-21T21:14:42Z</DateUtc></StartTime><FrequencyChanges><FrequencyChange><Frequency dt:dt=""r8"">3020380</Frequency><Timestamp dt:dt=""r8"">2846544542797</Timestamp><Current dt:dt=""r8"">0</Current><DateUtc dt:dt=""string"">2022-02-21T21:14:42Z</DateUtc></FrequencyChange></FrequencyChanges></Clock>\n"	000_R01_VB_allProc-128-1	60.001	1.0.0.232	1	-1018159961	Professional	2.0.10.356	2.0.10.356	02-21-2022	2/21/2022 9:14:42 PM	16:14:42	2.0.10.252	4	1	1	617362	16	617361	4000	-999999	793038	0	777360	0	Run3Proc	4	1	4	RunList	4	OfficeSmall	8000	0	717360	0	717360	0	717360	0	F3OfficeSmallBlockProc	n/a	n/a	n/a	n/a	n/a	n/a	4.0	1.0	4.0	n/a	n/a	n/a	n/a	n/a	n/a	Run3BlockList	6	n/a	n/a	n/a	n/a	n/a	n/a	n/a	n/a	n/a	n/a	n/a	n/a	n/a	n/a	n/a	n/a	n/a	n/a	n/a	n/a	n/a	n/a	n/a	n/a	n/a	n/a	n/a	n/a	n/a	n/a	n/a	n/a	n/a	n/a	n/a	n/a	n/a	n/a	n/a	n/a	n/a	n/a	n/a	n/a	n/a	n/a	n/a	n/a	n/a	n/a	n/a	n/a	n/a	n/a	n/a	n/a	n/a	n/a	n/a	n/a	n/a	n/a	n/a	n/a	n/a	n/a	n/a	n/a	n/a	n/a	n/a	n/a	n/a	n/a	n/a	n/a	n/a	n/a	n/a	n/a	n/a	6.0	1.0	6.0	n/a	n/a	n/a	n/a	n/a	n/a	F3_06.jpg	500	0	716860	0	716860	0	TrialProc1	F3OfficeSmallBlockList	2500	0	714360	0	714360	0	714360	2500	d	1479	715839	96.999
108	2.5	000_R01_VB_allProc	128	1	"<?xml version=""1.0""?>\n<Clock xmlns:dt=""urn:schemas-microsoft-com:datatypes""><Description dt:dt=""string"">E-Prime Primary Realtime Clock</Description><StartTime><Timestamp dt:dt=""int"">0</Timestamp><DateUtc dt:dt=""string"">2022-02-21T21:14:42Z</DateUtc></StartTime><FrequencyChanges><FrequencyChange><Frequency dt:dt=""r8"">3020380</Frequency><Timestamp dt:dt=""r8"">2846544542797</Timestamp><Current dt:dt=""r8"">0</Current><DateUtc dt:dt=""string"">2022-02-21T21:14:42Z</DateUtc></FrequencyChange></FrequencyChanges></Clock>\n"	000_R01_VB_allProc-128-1	60.001	1.0.0.232	1	-1018159961	Professional	2.0.10.356	2.0.10.356	02-21-2022	2/21/2022 9:14:42 PM	16:14:42	2.0.10.252	4	1	1	617362	16	617361	4000	-999999	793038	0	777360	0	Run3Proc	4	1	4	RunList	5	HighLargeED	8000	0	743360	0	743360	0	743360	0	A3HighLargeEDBlockProc	n/a	n/a	n/a	n/a	n/a	n/a	5.0	1.0	5.0	n/a	n/a	n/a	n/a	n/a	n/a	Run3BlockList	1	n/a	n/a	n/a	n/a	n/a	n/a	1.0	1.0	1.0	n/a	n/a	n/a	n/a	n/a	n/a	n/a	n/a	n/a	n/a	n/a	n/a	n/a	n/a	n/a	n/a	n/a	n/a	n/a	n/a	n/a	n/a	n/a	n/a	n/a	n/a	n/a	n/a	n/a	n/a	n/a	n/a	n/a	n/a	n/a	n/a	n/a	n/a	n/a	n/a	n/a	n/a	n/a	n/a	n/a	n/a	n/a	n/a	n/a	n/a	n/a	n/a	n/a	n/a	n/a	n/a	n/a	n/a	n/a	n/a	n/a	n/a	n/a	n/a	n/a	n/a	n/a	n/a	n/a	n/a	n/a	n/a	n/a	n/a	n/a	n/a	n/a	n/a	n/a	n/a	n/a	A3_01.jpg	500	0	727860	0	727860	0	TrialProc1	A3HighLargeEDBlockList	2500	0	725360	0	725360	0	725360	2500	d	2143	727503	107.999
111	2.5	000_R01_VB_allProc	128	1	"<?xml version=""1.0""?>\n<Clock xmlns:dt=""urn:schemas-microsoft-com:datatypes""><Description dt:dt=""string"">E-Prime Primary Realtime Clock</Description><StartTime><Timestamp dt:dt=""int"">0</Timestamp><DateUtc dt:dt=""string"">2022-02-21T21:14:42Z</DateUtc></StartTime><FrequencyChanges><FrequencyChange><Frequency dt:dt=""r8"">3020380</Frequency><Timestamp dt:dt=""r8"">2846544542797</Timestamp><Current dt:dt=""r8"">0</Current><DateUtc dt:dt=""string"">2022-02-21T21:14:42Z</DateUtc></FrequencyChange></FrequencyChanges></Clock>\n"	000_R01_VB_allProc-128-1	60.001	1.0.0.232	1	-1018159961	Professional	2.0.10.356	2.0.10.356	02-21-2022	2/21/2022 9:14:42 PM	16:14:42	2.0.10.252	4	1	1	617362	16	617361	4000	-999999	793038	0	777360	0	Run3Proc	4	1	4	RunList	5	HighLargeED	8000	0	743360	0	743360	0	743360	0	A3HighLargeEDBlockProc	n/a	n/a	n/a	n/a	n/a	n/a	5.0	1.0	5.0	n/a	n/a	n/a	n/a	n/a	n/a	Run3BlockList	2	n/a	n/a	n/a	n/a	n/a	n/a	2.0	1.0	2.0	n/a	n/a	n/a	n/a	n/a	n/a	n/a	n/a	n/a	n/a	n/a	n/a	n/a	n/a	n/a	n/a	n/a	n/a	n/a	n/a	n/a	n/a	n/a	n/a	n/a	n/a	n/a	n/a	n/a	n/a	n/a	n/a	n/a	n/a	n/a	n/a	n/a	n/a	n/a	n/a	n/a	n/a	n/a	n/a	n/a	n/a	n/a	n/a	n/a	n/a	n/a	n/a	n/a	n/a	n/a	n/a	n/a	n/a	n/a	n/a	n/a	n/a	n/a	n/a	n/a	n/a	n/a	n/a	n/a	n/a	n/a	n/a	n/a	n/a	n/a	n/a	n/a	n/a	n/a	n/a	n/a	A3_02.jpg	500	0	730860	0	730860	0	TrialProc1	A3HighLargeEDBlockList	2500	0	728360	0	728360	0	728360	2500	d	1455	729815	110.999
114	2.5	000_R01_VB_allProc	128	1	"<?xml version=""1.0""?>\n<Clock xmlns:dt=""urn:schemas-microsoft-com:datatypes""><Description dt:dt=""string"">E-Prime Primary Realtime Clock</Description><StartTime><Timestamp dt:dt=""int"">0</Timestamp><DateUtc dt:dt=""string"">2022-02-21T21:14:42Z</DateUtc></StartTime><FrequencyChanges><FrequencyChange><Frequency dt:dt=""r8"">3020380</Frequency><Timestamp dt:dt=""r8"">2846544542797</Timestamp><Current dt:dt=""r8"">0</Current><DateUtc dt:dt=""string"">2022-02-21T21:14:42Z</DateUtc></FrequencyChange></FrequencyChanges></Clock>\n"	000_R01_VB_allProc-128-1	60.001	1.0.0.232	1	-1018159961	Professional	2.0.10.356	2.0.10.356	02-21-2022	2/21/2022 9:14:42 PM	16:14:42	2.0.10.252	4	1	1	617362	16	617361	4000	-999999	793038	0	777360	0	Run3Proc	4	1	4	RunList	5	HighLargeED	8000	0	743360	0	743360	0	743360	0	A3HighLargeEDBlockProc	n/a	n/a	n/a	n/a	n/a	n/a	5.0	1.0	5.0	n/a	n/a	n/a	n/a	n/a	n/a	Run3BlockList	3	n/a	n/a	n/a	n/a	n/a	n/a	3.0	1.0	3.0	n/a	n/a	n/a	n/a	n/a	n/a	n/a	n/a	n/a	n/a	n/a	n/a	n/a	n/a	n/a	n/a	n/a	n/a	n/a	n/a	n/a	n/a	n/a	n/a	n/a	n/a	n/a	n/a	n/a	n/a	n/a	n/a	n/a	n/a	n/a	n/a	n/a	n/a	n/a	n/a	n/a	n/a	n/a	n/a	n/a	n/a	n/a	n/a	n/a	n/a	n/a	n/a	n/a	n/a	n/a	n/a	n/a	n/a	n/a	n/a	n/a	n/a	n/a	n/a	n/a	n/a	n/a	n/a	n/a	n/a	n/a	n/a	n/a	n/a	n/a	n/a	n/a	n/a	n/a	n/a	n/a	A3_03.jpg	500	0	733860	0	733860	0	TrialProc1	A3HighLargeEDBlockList	2500	0	731360	0	731360	0	731360	2500	d	1175	732535	113.999
117	2.5	000_R01_VB_allProc	128	1	"<?xml version=""1.0""?>\n<Clock xmlns:dt=""urn:schemas-microsoft-com:datatypes""><Description dt:dt=""string"">E-Prime Primary Realtime Clock</Description><StartTime><Timestamp dt:dt=""int"">0</Timestamp><DateUtc dt:dt=""string"">2022-02-21T21:14:42Z</DateUtc></StartTime><FrequencyChanges><FrequencyChange><Frequency dt:dt=""r8"">3020380</Frequency><Timestamp dt:dt=""r8"">2846544542797</Timestamp><Current dt:dt=""r8"">0</Current><DateUtc dt:dt=""string"">2022-02-21T21:14:42Z</DateUtc></FrequencyChange></FrequencyChanges></Clock>\n"	000_R01_VB_allProc-128-1	60.001	1.0.0.232	1	-1018159961	Professional	2.0.10.356	2.0.10.356	02-21-2022	2/21/2022 9:14:42 PM	16:14:42	2.0.10.252	4	1	1	617362	16	617361	4000	-999999	793038	0	777360	0	Run3Proc	4	1	4	RunList	5	HighLargeED	8000	0	743360	0	743360	0	743360	0	A3HighLargeEDBlockProc	n/a	n/a	n/a	n/a	n/a	n/a	5.0	1.0	5.0	n/a	n/a	n/a	n/a	n/a	n/a	Run3BlockList	4	n/a	n/a	n/a	n/a	n/a	n/a	4.0	1.0	4.0	n/a	n/a	n/a	n/a	n/a	n/a	n/a	n/a	n/a	n/a	n/a	n/a	n/a	n/a	n/a	n/a	n/a	n/a	n/a	n/a	n/a	n/a	n/a	n/a	n/a	n/a	n/a	n/a	n/a	n/a	n/a	n/a	n/a	n/a	n/a	n/a	n/a	n/a	n/a	n/a	n/a	n/a	n/a	n/a	n/a	n/a	n/a	n/a	n/a	n/a	n/a	n/a	n/a	n/a	n/a	n/a	n/a	n/a	n/a	n/a	n/a	n/a	n/a	n/a	n/a	n/a	n/a	n/a	n/a	n/a	n/a	n/a	n/a	n/a	n/a	n/a	n/a	n/a	n/a	n/a	n/a	A3_04.jpg	500	0	736860	0	736860	0	TrialProc1	A3HighLargeEDBlockList	2500	0	734360	0	734360	0	734360	2500	d	151	734511	116.999
120	2.5	000_R01_VB_allProc	128	1	"<?xml version=""1.0""?>\n<Clock xmlns:dt=""urn:schemas-microsoft-com:datatypes""><Description dt:dt=""string"">E-Prime Primary Realtime Clock</Description><StartTime><Timestamp dt:dt=""int"">0</Timestamp><DateUtc dt:dt=""string"">2022-02-21T21:14:42Z</DateUtc></StartTime><FrequencyChanges><FrequencyChange><Frequency dt:dt=""r8"">3020380</Frequency><Timestamp dt:dt=""r8"">2846544542797</Timestamp><Current dt:dt=""r8"">0</Current><DateUtc dt:dt=""string"">2022-02-21T21:14:42Z</DateUtc></FrequencyChange></FrequencyChanges></Clock>\n"	000_R01_VB_allProc-128-1	60.001	1.0.0.232	1	-1018159961	Professional	2.0.10.356	2.0.10.356	02-21-2022	2/21/2022 9:14:42 PM	16:14:42	2.0.10.252	4	1	1	617362	16	617361	4000	-999999	793038	0	777360	0	Run3Proc	4	1	4	RunList	5	HighLargeED	8000	0	743360	0	743360	0	743360	0	A3HighLargeEDBlockProc	n/a	n/a	n/a	n/a	n/a	n/a	5.0	1.0	5.0	n/a	n/a	n/a	n/a	n/a	n/a	Run3BlockList	5	n/a	n/a	n/a	n/a	n/a	n/a	5.0	1.0	5.0	n/a	n/a	n/a	n/a	n/a	n/a	n/a	n/a	n/a	n/a	n/a	n/a	n/a	n/a	n/a	n/a	n/a	n/a	n/a	n/a	n/a	n/a	n/a	n/a	n/a	n/a	n/a	n/a	n/a	n/a	n/a	n/a	n/a	n/a	n/a	n/a	n/a	n/a	n/a	n/a	n/a	n/a	n/a	n/a	n/a	n/a	n/a	n/a	n/a	n/a	n/a	n/a	n/a	n/a	n/a	n/a	n/a	n/a	n/a	n/a	n/a	n/a	n/a	n/a	n/a	n/a	n/a	n/a	n/a	n/a	n/a	n/a	n/a	n/a	n/a	n/a	n/a	n/a	n/a	n/a	n/a	A3_05.jpg	500	0	739860	0	739860	0	TrialProc1	A3HighLargeEDBlockList	2500	0	737360	0	737360	0	737360	2500	d	911	738271	119.999
123	2.5	000_R01_VB_allProc	128	1	"<?xml version=""1.0""?>\n<Clock xmlns:dt=""urn:schemas-microsoft-com:datatypes""><Description dt:dt=""string"">E-Prime Primary Realtime Clock</Description><StartTime><Timestamp dt:dt=""int"">0</Timestamp><DateUtc dt:dt=""string"">2022-02-21T21:14:42Z</DateUtc></StartTime><FrequencyChanges><FrequencyChange><Frequency dt:dt=""r8"">3020380</Frequency><Timestamp dt:dt=""r8"">2846544542797</Timestamp><Current dt:dt=""r8"">0</Current><DateUtc dt:dt=""string"">2022-02-21T21:14:42Z</DateUtc></FrequencyChange></FrequencyChanges></Clock>\n"	000_R01_VB_allProc-128-1	60.001	1.0.0.232	1	-1018159961	Professional	2.0.10.356	2.0.10.356	02-21-2022	2/21/2022 9:14:42 PM	16:14:42	2.0.10.252	4	1	1	617362	16	617361	4000	-999999	793038	0	777360	0	Run3Proc	4	1	4	RunList	5	HighLargeED	8000	0	743360	0	743360	0	743360	0	A3HighLargeEDBlockProc	n/a	n/a	n/a	n/a	n/a	n/a	5.0	1.0	5.0	n/a	n/a	n/a	n/a	n/a	n/a	Run3BlockList	6	n/a	n/a	n/a	n/a	n/a	n/a	6.0	1.0	6.0	n/a	n/a	n/a	n/a	n/a	n/a	n/a	n/a	n/a	n/a	n/a	n/a	n/a	n/a	n/a	n/a	n/a	n/a	n/a	n/a	n/a	n/a	n/a	n/a	n/a	n/a	n/a	n/a	n/a	n/a	n/a	n/a	n/a	n/a	n/a	n/a	n/a	n/a	n/a	n/a	n/a	n/a	n/a	n/a	n/a	n/a	n/a	n/a	n/a	n/a	n/a	n/a	n/a	n/a	n/a	n/a	n/a	n/a	n/a	n/a	n/a	n/a	n/a	n/a	n/a	n/a	n/a	n/a	n/a	n/a	n/a	n/a	n/a	n/a	n/a	n/a	n/a	n/a	n/a	n/a	n/a	A3_06.jpg	500	0	742860	0	742860	0	TrialProc1	A3HighLargeEDBlockList	2500	0	740360	0	740360	0	740360	2500	d	735	741095	122.999
134	2.5	000_R01_VB_allProc	128	1	"<?xml version=""1.0""?>\n<Clock xmlns:dt=""urn:schemas-microsoft-com:datatypes""><Description dt:dt=""string"">E-Prime Primary Realtime Clock</Description><StartTime><Timestamp dt:dt=""int"">0</Timestamp><DateUtc dt:dt=""string"">2022-02-21T21:14:42Z</DateUtc></StartTime><FrequencyChanges><FrequencyChange><Frequency dt:dt=""r8"">3020380</Frequency><Timestamp dt:dt=""r8"">2846544542797</Timestamp><Current dt:dt=""r8"">0</Current><DateUtc dt:dt=""string"">2022-02-21T21:14:42Z</DateUtc></FrequencyChange></FrequencyChanges></Clock>\n"	000_R01_VB_allProc-128-1	60.001	1.0.0.232	1	-1018159961	Professional	2.0.10.356	2.0.10.356	02-21-2022	2/21/2022 9:14:42 PM	16:14:42	2.0.10.252	4	1	1	617362	16	617361	4000	-999999	793038	0	777360	0	Run3Proc	4	1	4	RunList	6	LowLargeED	8000	0	769360	0	769360	0	769360	0	C3LowLargeEDBlockProc	n/a	n/a	n/a	n/a	n/a	n/a	6.0	1.0	6.0	n/a	n/a	n/a	n/a	n/a	n/a	Run3BlockList	1	n/a	n/a	n/a	n/a	n/a	n/a	n/a	n/a	n/a	n/a	n/a	n/a	n/a	n/a	n/a	n/a	n/a	n/a	n/a	n/a	n/a	n/a	n/a	n/a	n/a	n/a	n/a	n/a	n/a	n/a	n/a	n/a	n/a	n/a	n/a	n/a	1.0	1.0	1.0	n/a	n/a	n/a	n/a	n/a	n/a	n/a	n/a	n/a	n/a	n/a	n/a	n/a	n/a	n/a	n/a	n/a	n/a	n/a	n/a	n/a	n/a	n/a	n/a	n/a	n/a	n/a	n/a	n/a	n/a	n/a	n/a	n/a	n/a	n/a	n/a	n/a	n/a	n/a	n/a	n/a	n/a	n/a	n/a	n/a	n/a	n/a	n/a	n/a	n/a	n/a	C3_01.jpg	500	0	753860	0	753860	0	TrialProc1	C3LowLargeEDBlockList	2500	0	751360	0	751360	0	751360	2500	c	1687	753047	133.999
137	2.5	000_R01_VB_allProc	128	1	"<?xml version=""1.0""?>\n<Clock xmlns:dt=""urn:schemas-microsoft-com:datatypes""><Description dt:dt=""string"">E-Prime Primary Realtime Clock</Description><StartTime><Timestamp dt:dt=""int"">0</Timestamp><DateUtc dt:dt=""string"">2022-02-21T21:14:42Z</DateUtc></StartTime><FrequencyChanges><FrequencyChange><Frequency dt:dt=""r8"">3020380</Frequency><Timestamp dt:dt=""r8"">2846544542797</Timestamp><Current dt:dt=""r8"">0</Current><DateUtc dt:dt=""string"">2022-02-21T21:14:42Z</DateUtc></FrequencyChange></FrequencyChanges></Clock>\n"	000_R01_VB_allProc-128-1	60.001	1.0.0.232	1	-1018159961	Professional	2.0.10.356	2.0.10.356	02-21-2022	2/21/2022 9:14:42 PM	16:14:42	2.0.10.252	4	1	1	617362	16	617361	4000	-999999	793038	0	777360	0	Run3Proc	4	1	4	RunList	6	LowLargeED	8000	0	769360	0	769360	0	769360	0	C3LowLargeEDBlockProc	n/a	n/a	n/a	n/a	n/a	n/a	6.0	1.0	6.0	n/a	n/a	n/a	n/a	n/a	n/a	Run3BlockList	2	n/a	n/a	n/a	n/a	n/a	n/a	n/a	n/a	n/a	n/a	n/a	n/a	n/a	n/a	n/a	n/a	n/a	n/a	n/a	n/a	n/a	n/a	n/a	n/a	n/a	n/a	n/a	n/a	n/a	n/a	n/a	n/a	n/a	n/a	n/a	n/a	2.0	1.0	2.0	n/a	n/a	n/a	n/a	n/a	n/a	n/a	n/a	n/a	n/a	n/a	n/a	n/a	n/a	n/a	n/a	n/a	n/a	n/a	n/a	n/a	n/a	n/a	n/a	n/a	n/a	n/a	n/a	n/a	n/a	n/a	n/a	n/a	n/a	n/a	n/a	n/a	n/a	n/a	n/a	n/a	n/a	n/a	n/a	n/a	n/a	n/a	n/a	n/a	n/a	n/a	C3_02.jpg	500	0	756860	0	756860	0	TrialProc1	C3LowLargeEDBlockList	2500	0	754360	0	754360	0	754360	2500	c	1687	756047	136.999
140	2.5	000_R01_VB_allProc	128	1	"<?xml version=""1.0""?>\n<Clock xmlns:dt=""urn:schemas-microsoft-com:datatypes""><Description dt:dt=""string"">E-Prime Primary Realtime Clock</Description><StartTime><Timestamp dt:dt=""int"">0</Timestamp><DateUtc dt:dt=""string"">2022-02-21T21:14:42Z</DateUtc></StartTime><FrequencyChanges><FrequencyChange><Frequency dt:dt=""r8"">3020380</Frequency><Timestamp dt:dt=""r8"">2846544542797</Timestamp><Current dt:dt=""r8"">0</Current><DateUtc dt:dt=""string"">2022-02-21T21:14:42Z</DateUtc></FrequencyChange></FrequencyChanges></Clock>\n"	000_R01_VB_allProc-128-1	60.001	1.0.0.232	1	-1018159961	Professional	2.0.10.356	2.0.10.356	02-21-2022	2/21/2022 9:14:42 PM	16:14:42	2.0.10.252	4	1	1	617362	16	617361	4000	-999999	793038	0	777360	0	Run3Proc	4	1	4	RunList	6	LowLargeED	8000	0	769360	0	769360	0	769360	0	C3LowLargeEDBlockProc	n/a	n/a	n/a	n/a	n/a	n/a	6.0	1.0	6.0	n/a	n/a	n/a	n/a	n/a	n/a	Run3BlockList	3	n/a	n/a	n/a	n/a	n/a	n/a	n/a	n/a	n/a	n/a	n/a	n/a	n/a	n/a	n/a	n/a	n/a	n/a	n/a	n/a	n/a	n/a	n/a	n/a	n/a	n/a	n/a	n/a	n/a	n/a	n/a	n/a	n/a	n/a	n/a	n/a	3.0	1.0	3.0	n/a	n/a	n/a	n/a	n/a	n/a	n/a	n/a	n/a	n/a	n/a	n/a	n/a	n/a	n/a	n/a	n/a	n/a	n/a	n/a	n/a	n/a	n/a	n/a	n/a	n/a	n/a	n/a	n/a	n/a	n/a	n/a	n/a	n/a	n/a	n/a	n/a	n/a	n/a	n/a	n/a	n/a	n/a	n/a	n/a	n/a	n/a	n/a	n/a	n/a	n/a	C3_03.jpg	500	0	759860	0	759860	0	TrialProc1	C3LowLargeEDBlockList	2500	0	757360	0	757360	0	757360	2500	c	1487	758847	139.999
143	2.5	000_R01_VB_allProc	128	1	"<?xml version=""1.0""?>\n<Clock xmlns:dt=""urn:schemas-microsoft-com:datatypes""><Description dt:dt=""string"">E-Prime Primary Realtime Clock</Description><StartTime><Timestamp dt:dt=""int"">0</Timestamp><DateUtc dt:dt=""string"">2022-02-21T21:14:42Z</DateUtc></StartTime><FrequencyChanges><FrequencyChange><Frequency dt:dt=""r8"">3020380</Frequency><Timestamp dt:dt=""r8"">2846544542797</Timestamp><Current dt:dt=""r8"">0</Current><DateUtc dt:dt=""string"">2022-02-21T21:14:42Z</DateUtc></FrequencyChange></FrequencyChanges></Clock>\n"	000_R01_VB_allProc-128-1	60.001	1.0.0.232	1	-1018159961	Professional	2.0.10.356	2.0.10.356	02-21-2022	2/21/2022 9:14:42 PM	16:14:42	2.0.10.252	4	1	1	617362	16	617361	4000	-999999	793038	0	777360	0	Run3Proc	4	1	4	RunList	6	LowLargeED	8000	0	769360	0	769360	0	769360	0	C3LowLargeEDBlockProc	n/a	n/a	n/a	n/a	n/a	n/a	6.0	1.0	6.0	n/a	n/a	n/a	n/a	n/a	n/a	Run3BlockList	4	n/a	n/a	n/a	n/a	n/a	n/a	n/a	n/a	n/a	n/a	n/a	n/a	n/a	n/a	n/a	n/a	n/a	n/a	n/a	n/a	n/a	n/a	n/a	n/a	n/a	n/a	n/a	n/a	n/a	n/a	n/a	n/a	n/a	n/a	n/a	n/a	4.0	1.0	4.0	n/a	n/a	n/a	n/a	n/a	n/a	n/a	n/a	n/a	n/a	n/a	n/a	n/a	n/a	n/a	n/a	n/a	n/a	n/a	n/a	n/a	n/a	n/a	n/a	n/a	n/a	n/a	n/a	n/a	n/a	n/a	n/a	n/a	n/a	n/a	n/a	n/a	n/a	n/a	n/a	n/a	n/a	n/a	n/a	n/a	n/a	n/a	n/a	n/a	n/a	n/a	C3_04.jpg	500	0	762860	0	762860	0	TrialProc1	C3LowLargeEDBlockList	2500	0	760360	0	760360	0	760360	2500	d	2367	762727	142.999
146	2.5	000_R01_VB_allProc	128	1	"<?xml version=""1.0""?>\n<Clock xmlns:dt=""urn:schemas-microsoft-com:datatypes""><Description dt:dt=""string"">E-Prime Primary Realtime Clock</Description><StartTime><Timestamp dt:dt=""int"">0</Timestamp><DateUtc dt:dt=""string"">2022-02-21T21:14:42Z</DateUtc></StartTime><FrequencyChanges><FrequencyChange><Frequency dt:dt=""r8"">3020380</Frequency><Timestamp dt:dt=""r8"">2846544542797</Timestamp><Current dt:dt=""r8"">0</Current><DateUtc dt:dt=""string"">2022-02-21T21:14:42Z</DateUtc></FrequencyChange></FrequencyChanges></Clock>\n"	000_R01_VB_allProc-128-1	60.001	1.0.0.232	1	-1018159961	Professional	2.0.10.356	2.0.10.356	02-21-2022	2/21/2022 9:14:42 PM	16:14:42	2.0.10.252	4	1	1	617362	16	617361	4000	-999999	793038	0	777360	0	Run3Proc	4	1	4	RunList	6	LowLargeED	8000	0	769360	0	769360	0	769360	0	C3LowLargeEDBlockProc	n/a	n/a	n/a	n/a	n/a	n/a	6.0	1.0	6.0	n/a	n/a	n/a	n/a	n/a	n/a	Run3BlockList	5	n/a	n/a	n/a	n/a	n/a	n/a	n/a	n/a	n/a	n/a	n/a	n/a	n/a	n/a	n/a	n/a	n/a	n/a	n/a	n/a	n/a	n/a	n/a	n/a	n/a	n/a	n/a	n/a	n/a	n/a	n/a	n/a	n/a	n/a	n/a	n/a	5.0	1.0	5.0	n/a	n/a	n/a	n/a	n/a	n/a	n/a	n/a	n/a	n/a	n/a	n/a	n/a	n/a	n/a	n/a	n/a	n/a	n/a	n/a	n/a	n/a	n/a	n/a	n/a	n/a	n/a	n/a	n/a	n/a	n/a	n/a	n/a	n/a	n/a	n/a	n/a	n/a	n/a	n/a	n/a	n/a	n/a	n/a	n/a	n/a	n/a	n/a	n/a	n/a	n/a	C3_05.jpg	500	0	765860	0	765860	0	TrialProc1	C3LowLargeEDBlockList	2500	0	763360	0	763360	0	763360	2500	d	943	764303	145.999
149	2.5	000_R01_VB_allProc	128	1	"<?xml version=""1.0""?>\n<Clock xmlns:dt=""urn:schemas-microsoft-com:datatypes""><Description dt:dt=""string"">E-Prime Primary Realtime Clock</Description><StartTime><Timestamp dt:dt=""int"">0</Timestamp><DateUtc dt:dt=""string"">2022-02-21T21:14:42Z</DateUtc></StartTime><FrequencyChanges><FrequencyChange><Frequency dt:dt=""r8"">3020380</Frequency><Timestamp dt:dt=""r8"">2846544542797</Timestamp><Current dt:dt=""r8"">0</Current><DateUtc dt:dt=""string"">2022-02-21T21:14:42Z</DateUtc></FrequencyChange></FrequencyChanges></Clock>\n"	000_R01_VB_allProc-128-1	60.001	1.0.0.232	1	-1018159961	Professional	2.0.10.356	2.0.10.356	02-21-2022	2/21/2022 9:14:42 PM	16:14:42	2.0.10.252	4	1	1	617362	16	617361	4000	-999999	793038	0	777360	0	Run3Proc	4	1	4	RunList	6	LowLargeED	8000	0	769360	0	769360	0	769360	0	C3LowLargeEDBlockProc	n/a	n/a	n/a	n/a	n/a	n/a	6.0	1.0	6.0	n/a	n/a	n/a	n/a	n/a	n/a	Run3BlockList	6	n/a	n/a	n/a	n/a	n/a	n/a	n/a	n/a	n/a	n/a	n/a	n/a	n/a	n/a	n/a	n/a	n/a	n/a	n/a	n/a	n/a	n/a	n/a	n/a	n/a	n/a	n/a	n/a	n/a	n/a	n/a	n/a	n/a	n/a	n/a	n/a	6.0	1.0	6.0	n/a	n/a	n/a	n/a	n/a	n/a	n/a	n/a	n/a	n/a	n/a	n/a	n/a	n/a	n/a	n/a	n/a	n/a	n/a	n/a	n/a	n/a	n/a	n/a	n/a	n/a	n/a	n/a	n/a	n/a	n/a	n/a	n/a	n/a	n/a	n/a	n/a	n/a	n/a	n/a	n/a	n/a	n/a	n/a	n/a	n/a	n/a	n/a	n/a	n/a	n/a	C3_06.jpg	500	0	768860	0	768860	0	TrialProc1	C3LowLargeEDBlockList	2500	0	766360	0	766360	0	766360	2500	c	1894	768254	148.999
